acc_x,acc_y,acc_z,gyro_x,gyro_y,gyro_z
-82,65,-2039,-27,23,8
-74,46,-2040,-26,22,7
-84,52,-2032,-30,22,4
-76,60,-2052,-24,28,6
-76,56,-2046,-26,23,7
-85,51,-2042,-25,18,3
-77,58,-2041,-24,21,4
-89,65,-2051,-27,21,8
-79,57,-2059,-29,20,5
-77,61,-2032,-25,25,5
-75,61,-2034,-24,23,6
-76,52,-2042,-28,23,2
-76,56,-2053,-26,19,3
-81,63,-2056,-28,26,3
-79,51,-2045,-27,25,9
-78,57,-2037,-26,25,5
-80,56,-2046,-25,26,2
-80,63,-2046,-27,24,2
-77,59,-2043,-25,21,6
-79,53,-2047,-26,23,7
-81,56,-2043,-28,22,6
-78,52,-2047,-26,25,3
-83,49,-2041,-28,23,4
-89,60,-2050,-31,24,5
-83,58,-2051,-26,24,7
-78,56,-2046,-26,26,3
-85,60,-2036,-26,22,6
-76,54,-2042,-27,26,6
-77,54,-2031,-24,23,1
-72,53,-2050,-25,21,5
-83,50,-2050,-27,22,6
-81,55,-2031,-29,25,6
-76,49,-2040,-26,24,5
-74,59,-2032,-29,23,4
-79,55,-2044,-27,24,1
-79,60,-2046,-23,21,6
-74,44,-2041,-28,21,7
-76,59,-2034,-28,25,6
-85,55,-2037,-24,26,8
-82,61,-2041,-26,26,6
-87,59,-2051,-27,22,5
-86,56,-2038,-26,23,9
-83,49,-2036,-26,26,3
-78,58,-2053,-24,20,9
-82,53,-2037,-27,22,4
-81,47,-2045,-23,22,6
-75,63,-2041,-23,23,9
-82,60,-2043,-27,22,9
-80,55,-2038,-25,23,6
-73,64,-2048,-24,28,6
-81,59,-2044,-27,26,7
-80,54,-2040,-26,20,4
-91,54,-2054,-29,25,4
-81,48,-2038,-28,21,9
-82,54,-2043,-26,21,6
-78,58,-2042,-29,23,6
-73,50,-2032,-28,21,3
-79,57,-2051,-26,24,6
-86,52,-2029,-28,23,5
-85,54,-2052,-24,23,5
-81,55,-2044,-25,23,4
-80,53,-2033,-29,23,4
-78,56,-2045,-28,21,7
-84,47,-2040,-23,24,7
-84,52,-2049,-26,22,1
-77,56,-2037,-26,21,5
-76,64,-2051,-28,23,4
-75,51,-2051,-26,24,9
-82,50,-2044,-26,24,7
-75,53,-2043,-26,22,6
-78,60,-2046,-25,27,6
-84,55,-2035,-28,19,6
-84,57,-2046,-28,21,1
-78,53,-2045,-27,26,6
-78,62,-2041,-27,19,5
-88,57,-2047,-27,22,6
-77,56,-2044,-27,23,1
-75,61,-2052,-27,25,7
-77,61,-2047,-26,23,7
-79,50,-2044,-25,21,5
-81,52,-2049,-26,27,4
-76,55,-2040,-28,25,4
-82,50,-2040,-27,24,4
-79,60,-2045,-26,18,6
-84,52,-2040,-26,22,3
-82,54,-2044,-25,22,12
-82,52,-2046,-32,21,9
-78,59,-2033,-26,21,8
-83,56,-2051,-27,22,3
-78,48,-2045,-29,25,10
-78,61,-2044,-26,20,3
-80,57,-2042,-29,22,7
-77,57,-2045,-26,25,6
-80,58,-2049,-28,22,3
-82,60,-2037,-26,24,3
-80,56,-2044,-25,28,7
-87,56,-2031,-26,23,8
-85,63,-2030,-30,22,0
-81,57,-2040,-28,21,7
-83,53,-2043,-22,25,1
-78,51,-2032,-27,24,5
-78,57,-2041,-26,24,6
-80,57,-2040,-26,21,2
-74,60,-2049,-24,24,5
-85,56,-2052,-26,24,4
-77,61,-2038,-22,25,7
-75,61,-2042,-31,25,2
-74,61,-2060,-25,22,5
-78,52,-2038,-27,23,6
-81,53,-2048,-29,28,4
-75,58,-2044,-22,24,7
-85,56,-2041,-27,23,4
-85,52,-2048,-27,22,7
-81,62,-2049,-28,23,6
-81,55,-2047,-25,27,3
-88,64,-2035,-23,24,7
-88,58,-2055,-29,25,10
-81,63,-2044,-22,23,4
-82,50,-2042,-24,25,7
-90,58,-2055,-27,23,4
-82,58,-2043,-22,25,6
-88,54,-2047,-20,26,5
-81,56,-2040,-27,24,7
-68,49,-2034,-23,27,7
-78,56,-2044,-24,23,4
-82,63,-2043,-25,25,5
-92,53,-2050,-28,23,6
-83,54,-2051,-29,28,4
-77,51,-2041,-28,21,5
-77,63,-2043,-30,24,5
-82,53,-2038,-30,23,7
-81,60,-2035,-27,23,5
-82,49,-2041,-28,26,8
-72,65,-2044,-25,25,3
-79,56,-2035,-23,27,2
-79,64,-2041,-28,25,4
-88,50,-2050,-27,22,7
-70,62,-2036,-29,24,7
-83,54,-2039,-26,26,2
-85,55,-2043,-27,24,6
-74,57,-2036,-23,21,5
-80,55,-2044,-25,21,5
-74,48,-2049,-22,19,8
-85,56,-2035,-25,21,7
-86,53,-2047,-25,23,6
-74,55,-2046,-26,22,6
-81,55,-2044,-27,24,7
-73,55,-2042,-25,25,3
-81,49,-2038,-28,22,3
-80,51,-2030,-28,21,7
-84,62,-2052,-29,23,8
-77,50,-2033,-24,21,4
-76,57,-2035,-29,26,8
-81,57,-2033,-27,22,5
-73,64,-2043,-26,27,9
-84,48,-2046,-27,24,6
-76,67,-2039,-29,26,5
-81,51,-2042,-27,18,3
-75,56,-2034,-29,21,12
-81,56,-2032,-23,18,8
-82,58,-2021,-28,26,3
-84,58,-2045,-27,20,4
-84,58,-2050,-25,24,11
-75,64,-2052,-27,22,5
-85,58,-2044,-28,21,4
-76,66,-2043,-26,25,0
-86,55,-2037,-25,21,4
-81,51,-2037,-23,23,3
-78,52,-2043,-24,26,2
-78,52,-2042,-24,23,0
-84,54,-2049,-24,22,7
-78,54,-2042,-23,24,4
-79,54,-2053,-27,25,7
-75,53,-2041,-26,25,3
-83,60,-2039,-27,24,3
-74,55,-2042,-26,24,8
-89,54,-2037,-24,21,8
-84,58,-2054,-31,28,5
-89,60,-2047,-23,22,8
-81,56,-2046,-26,22,5
-80,54,-2034,-29,21,6
-78,48,-2064,-26,23,2
-82,58,-2048,-29,23,8
-78,57,-2041,-25,26,5
-80,61,-2042,-22,23,4
-80,55,-2041,-24,27,4
-79,53,-2040,-28,23,1
-85,52,-2052,-25,22,6
-83,63,-2051,-27,28,1
-82,66,-2040,-30,22,7
-88,52,-2042,-26,25,9
-85,54,-2045,-28,23,6
-82,55,-2048,-26,19,11
-79,50,-2055,-29,25,9
-88,55,-2034,-33,23,7
-86,57,-2048,-26,25,3
-82,58,-2034,-28,23,5
-85,53,-2036,-25,22,10
-82,62,-2033,-24,23,3
-86,52,-2026,-28,22,5
-84,49,-2051,-27,24,3
-80,55,-2041,-25,19,7
-82,52,-2036,-27,21,3
-78,61,-2033,-27,24,3
-74,55,-2038,-23,19,2
-81,63,-2041,-25,19,3
-78,52,-2038,-25,23,6
-79,52,-2042,-24,22,1
-76,53,-2030,-28,26,6
-84,58,-2029,-27,23,5
-75,57,-2034,-25,26,4
-79,61,-2044,-27,21,5
-83,63,-2036,-28,23,4
-77,48,-2042,-27,21,6
-73,54,-2045,-26,24,6
-81,53,-2039,-25,23,9
-82,50,-2046,-26,23,5
-81,58,-2038,-27,24,8
-82,61,-2035,-26,26,3
-78,54,-2036,-26,21,6
-87,58,-2032,-26,27,4
-79,58,-2041,-25,23,7
-88,51,-2041,-24,23,6
-73,59,-2046,-26,23,4
-79,57,-2034,-27,22,6
-82,59,-2042,-26,22,5
-81,60,-2041,-27,23,5
-78,60,-2035,-27,20,5
-77,52,-2049,-24,22,3
-84,58,-2028,-25,19,4
-82,58,-2041,-26,23,2
-83,60,-2050,-24,27,2
-88,53,-2048,-26,23,3
-88,58,-2028,-23,20,9
-82,60,-2041,-23,24,7
-83,54,-2045,-29,25,7
-81,55,-2041,-24,20,2
-80,60,-2041,-28,22,4
-73,59,-2047,-28,23,6
-81,52,-2044,-27,21,4
-81,62,-2043,-25,25,5
-90,47,-2041,-27,24,4
-81,55,-2035,-27,25,7
-83,59,-2046,-25,24,8
-80,60,-2029,-28,18,10
-78,61,-2046,-25,21,4
-78,58,-2042,-24,22,3
-80,56,-2036,-30,23,8
-82,56,-2041,-27,20,5
-77,61,-2045,-28,26,6
-77,52,-2042,-28,22,8
-83,58,-2048,-29,23,6
-79,62,-2043,-27,25,8
-78,57,-2039,-30,25,4
-76,59,-2042,-25,23,0
-73,51,-2043,-25,20,3
-77,58,-2055,-26,24,5
-77,48,-2049,-24,28,9
-78,62,-2048,-23,24,7
-84,59,-2034,-25,23,3
-85,59,-2035,-25,21,2
-78,57,-2050,-26,25,4
-78,56,-2031,-27,22,0
-81,52,-2050,-29,25,3
-83,54,-2030,-25,25,8
-76,55,-2033,-32,24,7
-80,52,-2040,-27,22,8
-76,55,-2052,-28,24,0
-77,52,-2046,-26,28,5
-80,55,-2028,-24,26,7
-77,63,-2033,-24,21,5
-79,59,-2042,-27,24,8
-87,53,-2043,-29,25,4
-82,59,-2044,-27,21,7
-77,56,-2032,-26,21,5
-76,52,-2037,-30,26,4
-81,51,-2031,-31,25,8
-81,64,-2048,-26,25,7
-78,56,-2036,-25,22,6
-81,55,-2032,-29,21,1
-83,53,-2033,-25,24,2
-78,58,-2044,-27,23,6
-88,61,-2036,-22,23,6
-83,55,-2035,-27,24,3
-85,53,-2042,-28,23,7
-84,56,-2047,-27,22,6
-76,55,-2040,-28,21,8
-77,55,-2043,-23,27,5
-79,52,-2046,-22,19,2
-79,63,-2053,-30,22,7
-89,55,-2042,-28,22,8
-83,56,-2043,-24,27,6
-81,54,-2048,-26,22,8
-78,57,-2053,-25,23,4
-84,47,-2041,-28,22,8
-88,58,-2050,-25,24,4
-82,60,-2042,-26,21,5
-75,59,-2042,-27,21,3
-80,57,-2045,-26,23,5
-80,49,-2050,-23,23,6
-76,50,-2033,-28,27,5
-71,50,-2032,-24,23,3
-90,55,-2050,-24,27,8
-84,63,-2033,-25,26,6
-81,55,-2042,-26,24,4
-85,55,-2042,-25,23,8
-85,67,-2040,-30,20,7
-85,51,-2049,-26,24,5
-83,57,-2041,-26,21,5
-81,55,-2047,-25,22,6
-84,60,-2035,-26,26,6
-81,60,-2045,-25,24,5
-72,57,-2042,-26,26,4
-84,62,-2047,-28,26,8
-86,50,-2045,-23,22,8
-77,59,-2042,-26,23,7
-71,58,-2048,-24,25,4
-82,56,-2053,-26,22,7
-85,58,-2048,-26,25,6
-81,59,-2030,-25,22,6
-78,54,-2043,-26,25,5
-77,59,-2051,-25,22,5
-80,59,-2047,-28,23,8
-82,54,-2038,-25,24,6
-82,53,-2041,-24,24,4
-81,67,-2037,-28,23,7
-86,56,-2053,-25,25,6
-78,60,-2058,-27,21,4
-82,54,-2045,-25,24,7
-81,55,-2034,-27,21,2
-84,61,-2052,-25,26,7
-82,50,-2042,-29,22,8
-80,55,-2041,-30,22,6
-81,50,-2039,-27,21,5
-76,59,-2040,-25,23,5
-78,48,-2046,-25,24,5
-83,68,-2047,-29,26,7
-84,54,-2047,-28,23,7
-81,57,-2038,-26,24,5
-73,51,-2047,-27,22,7
-81,43,-2038,-25,22,7
-77,52,-2038,-24,20,3
-83,59,-2044,-24,22,7
-83,59,-2042,-22,26,4
-84,58,-2039,-28,22,4
-78,60,-2041,-27,23,6
-83,56,-2045,-27,23,6
-80,45,-2046,-27,22,2
-82,59,-2051,-24,25,2
-88,61,-2052,-26,21,6
-82,53,-2036,-26,23,5
-82,57,-2043,-26,26,5
-86,64,-2040,-25,24,3
-86,63,-2041,-26,26,8
-85,59,-2028,-23,23,6
-82,61,-2047,-27,21,2
-84,54,-2043,-21,20,1
-77,51,-2046,-25,22,3
-80,57,-2037,-28,22,6
-86,57,-2048,-26,25,6
-94,62,-2036,-30,20,7
-81,57,-2045,-25,22,-1
-77,55,-2047,-27,25,6
-78,52,-2045,-25,23,2
-82,67,-2042,-27,19,5
-76,62,-2044,-30,21,4
-82,51,-2038,-30,24,7
-86,61,-2038,-25,22,4
-80,56,-2053,-27,25,4
-79,55,-2045,-29,22,7
-80,57,-2045,-23,25,3
-74,51,-2053,-23,25,6
-81,55,-2036,-27,23,8
-77,59,-2054,-26,20,7
-81,58,-2053,-25,26,3
-76,61,-2042,-27,24,7
-79,57,-2049,-26,22,5
-86,56,-2039,-25,25,4
-84,52,-2043,-29,20,7
-79,62,-2040,-22,24,9
-88,57,-2041,-21,23,7
-80,61,-2044,-23,23,5
-90,62,-2034,-28,22,8
-81,62,-2030,-18,18,8
-79,62,-2047,-23,25,5
-75,52,-2047,-26,23,5
-76,59,-2043,-26,20,4
-79,64,-2038,-27,22,5
-83,56,-2045,-27,25,4
-80,56,-2055,-25,25,4
-85,60,-2037,-28,28,6
-80,64,-2036,-26,23,8
-83,57,-2030,-24,20,7
-71,60,-2032,-27,24,7
-85,53,-2039,-25,23,1
-83,59,-2042,-25,20,4
-78,56,-2045,-24,23,5
-80,57,-2044,-30,23,5
-81,59,-2039,-25,24,7
-81,63,-2036,-28,21,1
-86,54,-2036,-27,24,8
-83,49,-2037,-30,26,6
-87,53,-2052,-24,27,4
-79,50,-2036,-22,26,5
-80,49,-2032,-26,26,9
-77,54,-2035,-22,20,4
-83,55,-2051,-26,24,2
-79,53,-2041,-27,29,7
-81,52,-2043,-27,26,5
-87,57,-2037,-29,20,2
-77,50,-2052,-26,23,7
-85,64,-2052,-30,24,6
-74,56,-2051,-26,23,5
-80,52,-2049,-28,20,4
-81,53,-2042,-27,25,3
-83,59,-2029,-28,23,6
-80,54,-2044,-26,22,8
-77,58,-2051,-29,22,7
-84,61,-2058,-27,23,6
-83,54,-2037,-24,21,5
-83,54,-2039,-28,26,8
-74,50,-2038,-26,23,4
-83,59,-2037,-20,21,4
-84,55,-2053,-24,22,7
-85,58,-2045,-29,26,8
-77,48,-2043,-25,25,6
-86,58,-2049,-28,21,1
-83,52,-2052,-28,24,4
-86,60,-2034,-24,21,4
-85,50,-2042,-26,21,10
-88,60,-2052,-24,23,3
-85,58,-2043,-25,20,5
-77,51,-2034,-25,22,5
-80,55,-2026,-32,22,5
-83,57,-2029,-26,26,5
-81,53,-2039,-24,25,3
-87,53,-2043,-29,21,5
-86,53,-2034,-28,21,7
-86,53,-2041,-26,26,8
-79,56,-2036,-25,23,3
-82,59,-2041,-23,25,5
-78,53,-2054,-24,24,2
-78,59,-2040,-31,23,6
-84,49,-2050,-29,21,9
-84,57,-2030,-26,26,7
-80,54,-2033,-28,21,6
-80,58,-2038,-28,26,3
-84,60,-2047,-28,24,7
-78,48,-2038,-24,20,2
-73,50,-2059,-29,23,8
-84,54,-2041,-27,27,9
-84,59,-2035,-27,24,6
-86,54,-2043,-28,27,4
-84,63,-2042,-30,24,6
-77,56,-2038,-27,21,7
-82,55,-2059,-25,23,2
-88,58,-2049,-29,21,4
-83,57,-2040,-28,19,10
-81,62,-2045,-24,26,7
-76,56,-2030,-27,24,7
-87,60,-2045,-27,24,7
-72,63,-2045,-27,25,-1
-83,53,-2047,-26,24,7
-79,55,-2040,-25,25,6
-83,57,-2044,-25,22,5
-87,50,-2049,-26,25,5
-80,60,-2041,-27,24,2
-84,62,-2043,-26,21,8
-74,62,-2034,-28,21,4
-83,60,-2038,-26,21,4
-81,52,-2037,-29,22,6
-86,57,-2043,-24,26,7
-73,56,-2046,-23,24,6
-83,49,-2046,-25,21,3
-81,56,-2036,-24,22,6
-78,58,-2046,-26,26,4
-83,54,-2051,-27,21,3
-84,55,-2043,-27,21,3
-84,68,-2049,-23,25,7
-90,65,-2033,-24,22,1
-74,54,-2033,-27,22,6
-77,56,-2028,-28,22,5
-81,50,-2034,-27,19,6
-81,52,-2052,-27,23,5
-72,56,-2053,-26,24,9
-71,57,-2041,-25,22,8
-83,59,-2045,-24,22,6
-80,55,-2041,-29,23,3
-81,53,-2048,-26,24,11
-81,51,-2041,-26,29,0
-78,60,-2034,-26,24,4
-81,52,-2054,-27,22,6
-80,52,-2032,-26,23,6
-89,57,-2044,-25,24,3
-76,64,-2042,-26,20,6
-77,54,-2047,-26,21,3
-78,55,-2047,-27,23,6
-87,57,-2038,-27,25,5
-90,52,-2034,-25,23,4
-72,52,-2041,-28,23,5
-83,52,-2030,-26,26,6
-86,57,-2046,-26,23,5
-79,60,-2044,-26,23,6
-80,65,-2044,-28,22,5
-79,61,-2039,-25,27,6
-81,59,-2044,-27,21,2
-84,64,-2047,-27,23,4
-81,56,-2041,-25,21,5
-93,55,-2037,-27,24,11
-85,49,-2045,-27,24,3
-75,64,-2041,-30,23,6
-77,55,-2048,-24,21,3
-79,52,-2036,-24,25,7
-80,61,-2051,-26,24,5
-89,51,-2032,-27,23,6
-88,61,-2039,-24,23,4
-83,47,-2055,-25,22,3
-74,58,-2053,-26,25,9
-78,56,-2036,-29,25,6
-89,57,-2037,-30,23,5
-76,51,-2035,-29,21,7
-84,58,-2058,-28,20,5
-84,54,-2038,-23,25,10
-79,51,-2032,-27,28,6
-76,62,-2034,-27,21,7
-76,54,-2043,-26,24,6
-80,53,-2053,-24,26,6
-81,57,-2035,-26,25,8
-81,54,-2025,-22,24,6
-79,54,-2040,-28,18,8
-80,63,-2043,-26,25,7
-82,57,-2034,-26,19,8
-88,56,-2042,-24,21,6
-77,50,-2032,-26,28,2
-76,48,-2047,-27,21,4
-73,56,-2041,-24,22,4
-82,55,-2046,-26,25,7
-77,54,-2039,-24,23,6
-81,55,-2049,-28,22,5
-84,49,-2063,-29,26,6
-77,46,-2053,-26,23,2
-81,55,-2035,-27,28,4
-84,57,-2043,-27,27,8
-79,46,-2039,-25,21,3
-80,59,-2044,-26,23,4
-76,52,-2043,-23,22,5
-79,54,-2044,-26,22,5
-75,54,-2043,-24,23,6
-72,55,-2045,-31,23,2
-74,61,-2050,-29,23,12
-84,55,-2050,-22,20,6
-76,58,-2044,-29,22,7
-84,55,-2043,-27,25,6
-92,60,-2048,-26,23,6
-76,51,-2038,-25,22,6
-86,56,-2048,-25,24,3
-79,52,-2033,-29,22,6
-80,56,-2037,-27,23,3
-74,58,-2042,-26,24,5
-79,56,-2039,-26,26,2
-81,56,-2032,-25,22,2
-80,59,-2048,-27,22,5
-82,51,-2042,-30,27,6
-76,59,-2043,-25,27,5
-77,55,-2049,-27,22,4
-87,60,-2032,-30,24,2
-78,58,-2035,-28,23,2
-86,58,-2032,-26,21,4
-85,55,-2044,-29,22,4
-80,60,-2034,-24,24,5
-80,51,-2040,-26,23,8
-87,57,-2041,-25,21,7
-87,50,-2039,-30,24,7
-82,59,-2047,-27,25,6
-82,62,-2045,-27,21,5
-76,53,-2045,-26,25,1
-79,62,-2047,-27,25,8
-85,57,-2050,-29,21,6
-81,60,-2048,-25,27,7
-89,54,-2037,-26,24,3
-75,60,-2041,-27,23,6
-81,54,-2048,-23,23,5
-85,54,-2040,-25,24,6
-85,49,-2045,-26,24,5
-77,54,-2043,-23,25,5
-84,56,-2039,-24,25,3
-80,60,-2046,-26,21,7
-84,56,-2048,-28,25,2
-81,49,-2033,-26,22,1
-86,53,-2035,-27,22,5
-83,58,-2030,-28,23,8
-74,60,-2052,-26,20,5
-88,52,-2041,-25,23,4
-84,53,-2048,-27,24,2
-79,48,-2035,-22,23,7
-80,54,-2046,-28,24,2
-80,56,-2031,-29,19,7
-79,52,-2044,-23,19,4
-79,60,-2035,-27,24,4
-79,57,-2048,-31,25,5
-83,55,-2047,-21,24,3
-91,60,-2058,-26,23,3
-79,50,-2044,-26,25,4
-84,52,-2043,-25,19,3
-79,59,-2041,-23,23,2
-69,56,-2048,-24,21,3
-83,62,-2039,-25,25,5
-84,62,-2037,-24,23,4
-80,59,-2043,-28,26,2
-80,55,-2043,-30,21,6
-78,59,-2034,-22,25,5
-79,62,-2053,-25,26,5
-80,61,-2043,-22,21,3
-80,54,-2055,-26,25,7
-79,54,-2048,-24,23,8
-81,60,-2047,-25,25,5
-77,60,-2045,-27,24,7
-85,49,-2033,-26,24,11
-87,64,-2043,-26,24,6
-80,57,-2042,-28,23,8
-78,54,-2050,-25,22,7
-81,61,-2046,-28,26,4
-87,55,-2039,-29,23,3
-76,57,-2030,-27,22,6
-76,48,-2054,-24,18,7
-79,60,-2027,-25,21,2
-86,59,-2041,-23,26,8
-78,55,-2032,-27,23,5
-78,57,-2043,-26,21,4
-76,50,-2050,-29,21,2
-74,51,-2030,-28,19,7
-88,58,-2045,-28,24,2
-82,60,-2040,-26,20,8
-83,54,-2052,-26,22,8
-87,48,-2053,-27,26,6
-74,58,-2034,-27,26,6
-82,58,-2042,-24,20,4
-80,59,-2043,-25,21,5
-83,51,-2045,-25,25,4
-76,60,-2039,-26,25,7
-77,59,-2041,-28,25,5
-86,54,-2041,-29,23,9
-87,62,-2041,-27,22,6
-77,52,-2047,-29,23,10
-92,48,-2048,-29,24,8
-72,49,-2042,-27,22,8
-80,50,-2045,-26,21,7
-83,51,-2036,-27,23,2
-87,56,-2051,-28,25,4
-80,67,-2038,-28,25,5
-75,60,-2044,-26,20,11
-83,60,-2049,-28,22,6
-85,52,-2051,-27,25,8
-81,55,-2045,-26,25,6
-78,48,-2032,-30,24,9
-81,49,-2042,-29,21,2
-80,56,-2041,-21,25,4
-81,57,-2036,-28,24,6
-83,53,-2046,-31,22,7
-75,60,-2037,-24,23,8
-82,59,-2047,-30,24,5
-78,50,-2047,-25,21,5
-86,52,-2051,-25,21,5
-82,55,-2045,-24,24,2
-83,46,-2038,-27,22,5
-83,55,-2048,-24,24,0
-78,56,-2057,-26,25,-1
-82,50,-2040,-27,24,6
-78,61,-2059,-26,27,7
-88,54,-2038,-32,24,5
-82,51,-2055,-28,26,6
-84,54,-2045,-26,22,10
-86,55,-2035,-23,24,4
-81,57,-2039,-24,21,8
-75,61,-2047,-27,23,9
-86,55,-2041,-24,24,9
-77,58,-2039,-25,20,1
-80,53,-2042,-25,22,4
-90,50,-2046,-26,26,8
-79,52,-2048,-28,23,5
-80,50,-2044,-25,23,7
-82,53,-2046,-32,21,4
-74,57,-2036,-24,25,8
-73,51,-2035,-28,24,4
-79,51,-2049,-24,23,2
-78,64,-2050,-28,19,4
-78,65,-2050,-25,25,9
-84,54,-2048,-27,24,3
-90,55,-2037,-27,24,7
-78,52,-2047,-27,21,8
-79,46,-2044,-29,23,4
-78,58,-2036,-28,24,10
-72,56,-2037,-29,26,3
-81,58,-2040,-25,19,4
-84,55,-2032,-24,24,5
-85,57,-2040,-28,23,6
-82,58,-2047,-29,22,3
-79,56,-2043,-28,19,4
-78,48,-2037,-25,21,5
-84,65,-2045,-25,22,8
-80,56,-2029,-26,21,8
-80,50,-2041,-28,25,5
-75,51,-2040,-23,23,6
-80,54,-2046,-26,24,2
-84,53,-2043,-24,23,5
-83,57,-2048,-26,25,5
-80,50,-2051,-24,24,3
-81,57,-2049,-26,22,6
-75,55,-2030,-27,24,4
-76,59,-2041,-24,28,6
-80,56,-2052,-29,22,7
-80,59,-2036,-31,21,4
-76,52,-2038,-23,24,7
-81,56,-2037,-22,25,6
-80,54,-2054,-23,20,5
-81,56,-2038,-27,24,8
-82,56,-2050,-30,22,7
-82,59,-2039,-24,21,7
-81,58,-2034,-24,21,6
-87,57,-2042,-26,21,6
-77,59,-2057,-24,21,1
-79,51,-2042,-24,24,6
-81,60,-2042,-27,22,8
-80,58,-2038,-29,24,4
-81,62,-2044,-23,25,7
-80,54,-2041,-29,21,9
-85,58,-2054,-25,22,7
-80,53,-2027,-25,23,-1
-81,47,-2038,-28,24,6
-77,57,-2048,-26,23,3
-83,51,-2043,-29,23,3
-83,59,-2039,-28,21,5
-80,58,-2035,-31,23,3
-79,52,-2044,-27,19,2
-81,47,-2046,-26,22,4
-77,55,-2044,-28,22,7
-83,61,-2028,-26,24,6
-84,47,-2048,-25,23,3
-71,50,-2046,-28,27,7
-85,56,-2042,-21,23,1
-78,56,-2038,-29,22,3
-81,46,-2032,-24,21,8
-81,62,-2043,-27,20,8
-77,57,-2028,-25,21,5
-72,52,-2049,-30,23,7
-79,55,-2037,-26,20,6
-76,52,-2044,-25,24,6
-87,59,-2042,-24,26,7
-79,44,-2044,-23,22,6
-89,47,-2038,-28,26,4
-87,53,-2044,-27,24,6
-76,59,-2038,-28,24,0
-80,60,-2034,-27,26,7
-81,60,-2039,-27,26,7
-79,64,-2057,-27,22,6
-88,55,-2044,-30,22,6
-80,55,-2046,-25,21,4
-88,60,-2042,-27,23,5
-83,56,-2039,-24,21,8
-87,58,-2036,-26,19,4
-77,55,-2050,-28,22,6
-82,51,-2043,-26,21,8
-77,51,-2053,-30,25,1
-79,57,-2048,-25,18,6
-79,56,-2043,-28,22,5
-83,64,-2049,-29,27,3
-80,53,-2041,-27,25,3
-80,51,-2047,-24,25,3
-78,45,-2043,-26,24,2
-88,54,-2051,-26,27,7
-79,55,-2043,-26,24,7
-84,58,-2051,-24,18,7
-80,60,-2038,-30,24,7
-78,50,-2045,-26,26,7
-79,54,-2046,-29,22,7
-74,58,-2044,-24,22,9
-82,65,-2035,-28,21,7
-85,51,-2043,-27,21,3
-80,60,-2036,-25,22,6
-86,59,-2043,-26,26,6
-83,55,-2053,-27,26,2
-84,56,-2048,-29,24,8
-88,54,-2058,-27,25,4
-88,54,-2043,-26,24,5
-79,59,-2042,-27,25,4
-83,58,-2047,-27,24,6
-76,50,-2050,-27,19,6
-84,54,-2058,-23,24,5
-83,54,-2045,-28,19,4
-80,53,-2047,-27,21,4
-84,62,-2044,-24,22,6
-81,56,-2055,-29,23,3
-84,59,-2048,-27,20,6
-84,51,-2045,-28,25,-2
-77,58,-2045,-25,20,4
-81,54,-2042,-25,23,4
-80,57,-2037,-29,25,7
-76,60,-2041,-27,26,6
-79,69,-2050,-22,22,9
-76,54,-2049,-26,23,7
-82,60,-2041,-25,19,5
-76,55,-2040,-24,25,4
-81,54,-2051,-28,25,2
-84,52,-2026,-23,18,4
-78,64,-2031,-24,27,5
-84,60,-2049,-25,21,4
-85,53,-2041,-27,24,5
-90,53,-2046,-25,22,1
-82,58,-2038,-26,20,8
-83,64,-2039,-25,22,8
-77,52,-2052,-26,25,2
-82,53,-2034,-26,25,5
-83,49,-2053,-28,24,2
-78,59,-2053,-29,23,7
-79,51,-2050,-28,24,7
-79,52,-2037,-27,26,3
-84,59,-2037,-23,24,5
-82,60,-2040,-26,23,3
-82,57,-2043,-27,21,4
-89,52,-2048,-24,25,7
-82,46,-2036,-24,23,2
-86,59,-2039,-29,23,10
-79,56,-2044,-26,21,8
-83,51,-2051,-27,22,8
-83,60,-2037,-25,20,5
-81,50,-2040,-29,22,4
-86,56,-2050,-21,25,7
-74,56,-2045,-24,20,5
-84,65,-2050,-25,21,3
-79,56,-2032,-27,24,9
-75,60,-2049,-27,24,9
-76,56,-2053,-27,23,3
-79,57,-2059,-25,19,8
-86,57,-2034,-28,24,6
-83,57,-2039,-25,24,7
-70,61,-2053,-25,21,5
-86,49,-2047,-23,20,4
-75,46,-2034,-25,25,7
-82,59,-2040,-31,26,1
-76,58,-2036,-23,20,5
-82,62,-2040,-25,20,2
-81,60,-2038,-25,21,5
-81,51,-2040,-26,24,5
-78,52,-2056,-23,23,5
-82,61,-2032,-28,21,4
-76,61,-2042,-25,20,6
-83,46,-2048,-27,24,5
-82,54,-2037,-22,22,3
-79,59,-2042,-23,22,4
-78,53,-2039,-27,21,9
-82,54,-2043,-23,26,4
-81,56,-2042,-25,21,4
-79,60,-2038,-31,25,9
-81,51,-2041,-24,23,5
-83,58,-2045,-26,23,-1
-80,62,-2049,-27,25,11
-82,59,-2054,-26,24,6
-79,56,-2042,-25,24,6
-81,60,-2047,-26,23,3
-83,71,-2047,-28,22,6
-83,54,-2048,-29,23,4
-79,54,-2044,-24,24,5
-76,59,-2043,-30,24,6
-80,52,-2039,-27,22,5
-80,63,-2041,-27,24,3
-78,57,-2049,-24,24,5
-85,48,-2036,-22,21,7
-79,54,-2037,-26,25,8
-83,54,-2045,-27,23,8
-77,59,-2034,-27,25,7
-81,51,-2040,-26,22,4
-86,58,-2048,-26,23,6
-80,56,-2048,-26,22,3
-86,55,-2047,-26,24,5
-79,54,-2036,-27,23,7
-82,59,-2047,-26,23,9
-82,57,-2018,-27,24,4
-76,49,-2039,-27,21,2
-85,53,-2038,-27,24,2
-93,53,-2046,-25,25,7
-84,56,-2034,-25,25,6
-90,54,-2046,-27,20,10
-78,62,-2027,-27,24,10
-73,54,-2043,-23,24,6
-88,53,-2051,-27,23,6
-78,58,-2052,-26,17,7
-74,61,-2046,-28,21,8
-83,55,-2036,-30,26,5
-76,57,-2054,-29,22,3
-79,58,-2030,-25,27,6
-83,58,-2036,-29,25,5
-87,62,-2056,-29,23,0
-80,61,-2052,-28,23,5
-79,47,-2050,-28,22,5
-79,57,-2038,-28,23,4
-87,52,-2031,-29,22,6
-83,58,-2044,-29,22,9
-83,58,-2044,-24,25,3
-84,54,-2043,-22,24,9
-91,62,-2053,-28,23,2
-84,61,-2044,-21,25,7
-78,56,-2039,-27,24,3
-77,59,-2035,-26,20,6
-75,61,-2060,-27,29,6
-78,58,-2042,-29,27,5
-85,56,-2041,-28,21,6
-89,58,-2039,-29,23,5
-88,56,-2049,-27,27,7
-86,61,-2033,-26,22,5
-82,53,-2050,-29,21,6
-77,54,-2040,-28,25,5
-84,51,-2037,-20,20,6
-80,59,-2043,-28,22,2
-79,59,-2051,-22,23,2
-86,56,-2053,-27,23,1
-81,58,-2042,-25,23,5
-78,56,-2055,-28,25,6
-77,57,-2048,-25,22,3
-83,51,-2045,-26,24,10
-79,54,-2040,-26,21,4
-80,63,-2040,-28,24,6
-81,51,-2050,-29,26,7
-75,58,-2042,-28,24,7
-78,51,-2043,-25,19,8
-78,53,-2043,-24,24,5
-83,54,-2045,-27,23,5
-84,56,-2047,-25,26,8
-84,56,-2037,-28,22,2
-87,57,-2040,-30,24,8
-84,61,-2035,-29,24,3
-80,58,-2036,-26,25,9
-84,52,-2046,-24,20,5
-79,60,-2041,-27,19,1
-81,56,-2038,-25,25,4
-86,57,-2037,-29,25,4
-80,56,-2046,-33,22,8
-78,60,-2036,-25,25,4
-79,53,-2044,-25,23,6
-77,51,-2033,-27,23,5
-79,56,-2042,-24,21,3
-77,59,-2048,-32,22,1
-77,51,-2043,-24,24,6
-87,49,-2051,-25,20,6
-83,57,-2047,-26,25,6
-80,65,-2046,-27,23,8
-84,57,-2047,-26,27,6
-80,58,-2053,-28,22,4
-81,57,-2039,-27,24,6
-79,60,-2038,-26,17,6
-81,60,-2053,-27,23,7
-86,56,-2043,-25,25,7
-79,66,-2043,-27,20,3
-75,56,-2053,-28,24,4
-88,51,-2041,-24,18,4
-74,45,-2040,-25,20,4
-75,55,-2045,-27,21,4
-79,59,-2040,-22,24,4
-79,59,-2040,-27,24,5
-85,59,-2037,-27,23,2
-85,50,-2047,-24,23,6
-81,60,-2037,-25,25,4
-79,64,-2044,-26,24,2
-81,48,-2048,-26,27,3
-82,55,-2048,-29,24,6
-82,50,-2036,-26,24,4
-81,57,-2039,-28,25,6
-84,52,-2031,-26,24,9
-78,63,-2046,-26,22,6
-85,60,-2035,-26,21,2
-73,56,-2037,-26,25,3
-87,53,-2045,-24,23,7
-83,58,-2050,-26,21,3
-80,58,-2040,-28,21,4
-85,62,-2038,-24,24,5
-77,60,-2046,-25,23,6
-80,55,-2035,-27,23,3
-75,49,-2054,-30,24,6
-82,55,-2041,-23,24,3
-77,48,-2045,-27,23,8
-82,59,-2047,-26,22,4
-83,50,-2043,-23,24,0
-74,54,-2042,-29,25,6
-88,63,-2054,-27,19,7
-87,53,-2045,-28,23,7
-77,55,-2045,-27,24,6
-79,56,-2043,-26,23,9
-83,60,-2036,-28,25,2
-76,53,-2041,-27,24,4
-78,52,-2045,-27,23,0
-81,51,-2043,-26,23,7
-82,54,-2046,-30,24,6
-73,54,-2032,-30,24,4
-82,53,-2032,-27,18,4
-87,52,-2045,-27,26,6
-81,52,-2046,-26,24,6
-82,51,-2045,-23,25,8
-84,59,-2038,-27,22,5
-85,53,-2041,-22,21,2
-89,52,-2035,-26,25,6
-84,55,-2043,-24,21,8
-76,53,-2035,-26,26,4
-82,56,-2041,-28,23,5
-81,60,-2046,-28,21,2
-82,43,-2036,-25,25,4
-82,47,-2037,-25,21,3
-82,53,-2042,-27,24,4
-80,55,-2041,-24,22,2
-80,55,-2038,-30,22,7
-83,55,-2044,-30,24,10
-85,62,-2039,-22,21,6
-80,55,-2040,-26,23,8
-78,53,-2034,-28,21,6
-76,55,-2039,-29,23,4
-83,53,-2049,-28,21,5
-89,60,-2033,-26,25,7
-79,59,-2049,-26,22,5
-80,53,-2041,-25,23,7
-78,56,-2048,-29,24,4
-78,56,-2041,-26,22,6
-79,58,-2032,-23,23,4
-83,57,-2046,-27,24,4
-81,58,-2044,-26,23,7
-76,57,-2053,-25,27,7
-74,57,-2038,-27,24,7
-85,61,-2060,-27,21,7
-80,53,-2044,-26,21,5
-85,57,-2038,-24,24,5
-83,56,-2031,-25,22,2
-83,58,-2039,-24,22,7
-71,66,-2034,-31,21,8
-80,52,-2033,-24,25,3
-84,56,-2029,-25,23,2
-83,57,-2044,-30,23,6
-81,51,-2046,-26,23,5
-80,59,-2042,-26,23,6
-76,60,-2044,-26,21,4
-80,58,-2042,-22,27,3
-80,55,-2055,-26,20,12
-74,51,-2036,-25,25,5
-83,60,-2043,-27,18,6
-77,51,-2038,-27,21,5
-83,55,-2054,-27,23,4
-87,59,-2048,-26,18,8
-76,57,-2046,-26,23,6
-89,55,-2050,-28,24,5
-79,51,-2042,-28,22,4
-85,55,-2044,-23,24,9
-73,57,-2044,-27,27,4
-81,60,-2043,-26,23,5
-89,58,-2046,-24,22,8
-80,62,-2051,-26,27,-1
-82,58,-2046,-23,26,5
-78,53,-2034,-25,22,2
-83,54,-2044,-26,23,5
-73,52,-2040,-25,19,8
-80,55,-2041,-26,20,6
-76,52,-2052,-25,22,7
-76,67,-2030,-25,21,1
-80,62,-2038,-27,18,3
-77,58,-2045,-24,20,8
-81,59,-2047,-25,23,3
-81,56,-2040,-25,27,6
-81,61,-2057,-27,26,2
-83,53,-2042,-27,24,5
-82,51,-2041,-26,25,5
-74,53,-2037,-24,21,4
-84,60,-2048,-25,21,5
-76,53,-2039,-26,22,5
-80,57,-2042,-27,26,4
-85,55,-2042,-28,22,6
-83,50,-2042,-25,24,3
-79,54,-2046,-29,22,4
-83,59,-2047,-24,26,8
-87,60,-2044,-25,26,9
-79,60,-2035,-28,25,6
-83,55,-2041,-29,23,6
-78,65,-2034,-27,25,5
-74,61,-2037,-28,23,6
-86,54,-2047,-26,24,3
-88,59,-2045,-24,20,8
-78,55,-2044,-28,22,8
-86,63,-2040,-29,22,3
-80,53,-2036,-28,26,5
-78,58,-2043,-30,24,1
-77,63,-2042,-28,25,5
-79,56,-2033,-27,24,6
-79,56,-2036,-25,23,3
-82,57,-2039,-30,23,3
-82,56,-2033,-21,21,6
-79,51,-2043,-29,27,5
-90,50,-2049,-26,27,4
-83,56,-2041,-28,19,2
-91,65,-2039,-24,26,6
-80,57,-2041,-27,21,5
-81,56,-2038,-25,26,5
-82,60,-2039,-25,23,5
-84,49,-2035,-26,22,4
-81,55,-2050,-27,23,3
-80,57,-2040,-28,24,7
-80,60,-2037,-22,22,2
-80,61,-2047,-27,19,5
-82,56,-2048,-25,22,4
-77,51,-2049,-28,23,6
-79,65,-2031,-23,24,6
-81,47,-2043,-30,22,4
-71,58,-2049,-23,22,5
-81,60,-2041,-28,23,7
-77,55,-2042,-25,27,3
-77,62,-2043,-29,22,9
-78,58,-2038,-29,25,5
-79,60,-2047,-28,25,3
-80,59,-2040,-26,22,8
-81,52,-2035,-28,20,4
-79,61,-2041,-22,25,6
-82,58,-2056,-29,21,9
-76,64,-2035,-26,23,3
-82,59,-2027,-26,21,5
-78,55,-2048,-30,24,7
-84,55,-2036,-27,22,3
-81,53,-2043,-27,23,4
-88,65,-2061,-27,25,5
-85,57,-2032,-26,21,6
-76,60,-2040,-25,23,4
-81,55,-2048,-26,25,8
-80,63,-2042,-23,23,4
-75,59,-2041,-27,20,8
-83,60,-2036,-25,24,7
-74,61,-2038,-25,21,0
-79,54,-2041,-26,21,2
-84,55,-2040,-27,22,10
-80,56,-2040,-25,20,4
-79,60,-2031,-26,21,4
-82,53,-2035,-22,25,6
-79,57,-2050,-30,26,5
-90,55,-2044,-26,22,2
-82,62,-2054,-27,24,6
-77,55,-2042,-21,26,6
-83,54,-2036,-23,22,8
-83,54,-2046,-25,26,4
-81,61,-2035,-28,23,7
-78,59,-2035,-25,22,5
-83,53,-2049,-25,28,4
-82,53,-2038,-29,20,9
-83,52,-2038,-30,24,7
-79,59,-2037,-29,24,2
-88,61,-2047,-27,23,6
-85,63,-2038,-25,19,7
-76,61,-2054,-25,21,5
-81,52,-2045,-27,27,6
-81,50,-2047,-25,24,3
-80,61,-2041,-28,21,4
-85,52,-2050,-27,22,8
-88,52,-2036,-25,25,4
-81,60,-2039,-25,27,3
-73,51,-2040,-24,26,6
-80,61,-2045,-26,23,4
-79,54,-2043,-26,22,7
-86,57,-2050,-24,27,5
-79,49,-2039,-26,22,7
-72,57,-2045,-24,23,5
-81,57,-2047,-28,23,7
-82,50,-2043,-22,22,7
-79,57,-2040,-26,25,4
-83,59,-2051,-27,24,5
-85,64,-2043,-26,24,6
-85,53,-2046,-26,22,5
-84,61,-2045,-27,23,3
-76,57,-2041,-28,21,8
-74,61,-2035,-27,26,7
-85,49,-2053,-27,24,7
-76,56,-2037,-27,23,4
-79,57,-2041,-24,25,8
-84,50,-2044,-27,25,6
-78,52,-2049,-29,22,7
-81,56,-2047,-27,24,4
-82,54,-2033,-28,26,6
-86,64,-2031,-24,24,4
-85,56,-2035,-26,25,5
-77,59,-2043,-25,22,4
-82,57,-2041,-25,26,10
-78,56,-2039,-28,22,2
-81,59,-2042,-31,29,5
-79,64,-2051,-28,26,5
-68,61,-2043,-24,24,0
-81,55,-2039,-24,25,6
-85,50,-2048,-29,22,1
-90,46,-2049,-26,25,5
-87,60,-2037,-26,22,2
-83,56,-2048,-24,21,6
-85,58,-2038,-27,23,4
-79,54,-2048,-24,23,3
-76,52,-2040,-22,25,4
-78,58,-2044,-27,24,11
-81,58,-2039,-29,22,1
-79,52,-2048,-27,25,5
-80,62,-2045,-27,22,4
-81,55,-2047,-23,26,2
-78,61,-2032,-27,26,7
-86,55,-2051,-24,22,5
-80,57,-2051,-24,24,4
-85,53,-2036,-26,21,4
-80,68,-2037,-28,21,4
-81,63,-2043,-24,19,3
-75,60,-2040,-23,25,3
-85,52,-2044,-26,26,6
-81,59,-2044,-22,24,1
-80,59,-2039,-26,25,5
-87,52,-2040,-26,21,8
-87,63,-2035,-27,27,2
-76,64,-2048,-25,21,4
-81,55,-2046,-25,25,3
-76,57,-2043,-22,25,4
-89,57,-2037,-27,24,7
-90,53,-2039,-28,23,7
-77,56,-2049,-28,25,4
-75,57,-2048,-24,27,1
-81,59,-2048,-24,23,9
-80,49,-2040,-25,22,7
-75,60,-2050,-29,21,4
-82,62,-2048,-27,23,5
-76,49,-2036,-23,23,7
-81,65,-2033,-24,24,4
-80,46,-2057,-28,24,7
-77,53,-2045,-25,22,1
-83,58,-2031,-24,27,6
-77,59,-2039,-24,21,2
-86,54,-2035,-25,25,2
-80,56,-2048,-27,29,5
-80,57,-2041,-29,21,6
-83,54,-2051,-27,26,1
-77,54,-2030,-26,25,7
-79,61,-2052,-24,22,5
-84,56,-2047,-30,25,6
-78,59,-2056,-27,22,5
-80,54,-2037,-25,27,7
-89,58,-2036,-24,20,6
-79,62,-2044,-27,25,1
-73,60,-2046,-27,27,7
-71,55,-2050,-25,25,5
-74,50,-2050,-27,23,9
-80,54,-2037,-28,23,11
-82,59,-2041,-24,24,3
-85,61,-2053,-23,23,4
-75,54,-2047,-28,21,8
-87,57,-2045,-32,23,3
-81,51,-2037,-26,25,8
-84,57,-2041,-26,21,6
-83,61,-2044,-25,20,6
-79,49,-2042,-26,21,3
-81,60,-2036,-24,22,4
-80,55,-2047,-24,21,5
-77,57,-2045,-29,21,7
-75,54,-2035,-25,24,8
-84,50,-2047,-28,20,3
-83,52,-2048,-29,22,7
-72,58,-2030,-27,23,5
-80,61,-2044,-28,22,8
-83,60,-2038,-26,21,6
-92,59,-2046,-26,21,8
-81,59,-2039,-22,21,4
-79,56,-2049,-26,22,4
-90,61,-2035,-26,22,8
-83,50,-2051,-25,23,2
-81,59,-2038,-26,22,5
-80,54,-2043,-26,23,4
-84,58,-2051,-27,23,6
-84,57,-2042,-28,23,6
-83,52,-2044,-29,30,5
-84,47,-2045,-23,19,7
-87,59,-2049,-25,25,4
-83,59,-2048,-24,23,7
-86,62,-2039,-24,25,5
-78,61,-2044,-25,18,1
-85,60,-2048,-31,25,4
-86,56,-2042,-27,25,1
-77,58,-2048,-23,23,2
-81,58,-2045,-25,27,2
-79,56,-2052,-30,25,3
-76,54,-2045,-26,22,-1
-81,56,-2052,-27,22,5
-76,57,-2043,-25,22,6
-82,60,-2048,-27,23,8
-83,58,-2031,-26,25,7
-76,59,-2038,-26,24,3
-80,64,-2045,-24,24,8
-73,57,-2037,-26,25,5
-78,53,-2047,-25,23,6
-79,54,-2047,-25,24,3
-84,59,-2042,-25,23,2
-86,67,-2039,-30,23,2
-83,60,-2038,-27,24,6
-77,59,-2029,-25,22,10
-80,57,-2046,-21,25,8
-78,49,-2034,-27,27,5
-84,54,-2040,-27,22,4
-84,57,-2040,-28,21,3
-84,58,-2044,-28,23,5
-74,60,-2049,-27,25,3
-76,54,-2040,-23,25,3
-79,56,-2049,-25,19,7
-80,57,-2033,-30,22,7
-86,57,-2047,-29,26,9
-79,49,-2043,-27,21,5
-82,59,-2037,-27,23,6
-80,56,-2049,-29,23,5
-84,64,-2040,-23,29,3
-80,56,-2034,-24,25,6
-75,53,-2032,-24,25,3
-83,58,-2041,-27,19,6
-79,59,-2030,-23,24,3
-88,54,-2042,-28,23,4
-84,54,-2036,-26,28,5
-92,54,-2042,-24,23,6
-81,56,-2046,-32,24,7
-78,51,-2041,-29,23,6
-82,48,-2050,-29,25,4
-77,50,-2034,-30,22,4
-77,50,-2036,-25,25,6
-80,54,-2048,-24,20,6
-83,49,-2036,-27,24,3
-75,55,-2042,-26,24,8
-83,57,-2034,-29,22,3
-79,47,-2038,-29,21,3
-86,55,-2043,-26,21,3
-82,58,-2042,-27,21,2
-74,60,-2041,-27,22,7
-84,65,-2041,-27,23,2
-82,57,-2040,-25,27,5
-87,56,-2039,-26,24,8
-77,60,-2031,-27,20,4
-76,54,-2045,-28,23,8
-79,56,-2036,-27,26,3
-81,50,-2038,-24,22,4
-78,59,-2043,-26,20,5
-81,60,-2035,-29,25,2
-83,53,-2031,-28,21,3
-82,56,-2043,-25,23,2
-87,54,-2046,-23,24,6
-86,55,-2040,-27,21,6
-87,52,-2047,-28,27,4
-76,59,-2047,-27,24,3
-78,59,-2029,-24,23,1
-81,61,-2031,-25,21,7
-79,49,-2043,-29,23,7
-84,56,-2038,-28,25,6
-79,55,-2039,-29,25,3
-82,57,-2048,-26,23,5
-76,54,-2046,-26,24,5
-82,56,-2038,-24,23,5
-77,48,-2040,-28,26,8
-86,49,-2044,-24,24,5
-79,56,-2060,-27,25,7
-83,53,-2028,-27,25,4
-78,58,-2048,-24,24,5
-82,58,-2047,-28,23,5
-85,61,-2035,-27,27,3
-86,53,-2039,-29,25,2
-76,60,-2042,-27,22,6
-82,59,-2038,-24,24,5
-78,56,-2044,-21,22,8
-79,54,-2033,-30,19,8
-86,60,-2037,-28,18,3
-81,64,-2031,-28,21,4
-87,55,-2040,-26,22,3
-83,52,-2041,-26,23,4
-80,50,-2038,-26,25,9
-81,58,-2044,-29,23,6
-88,62,-2044,-29,22,6
-80,58,-2051,-28,24,6
-75,55,-2038,-27,27,6
-82,44,-2047,-28,27,2
-81,55,-2043,-27,27,4
-83,56,-2037,-26,24,7
-71,57,-2039,-24,21,7
-84,56,-2050,-25,17,2
-80,49,-2043,-29,22,5
-81,59,-2038,-27,24,8
-74,48,-2048,-27,24,5
-85,59,-2041,-22,24,4
-84,63,-2045,-26,21,3
-81,59,-2036,-29,25,3
-75,51,-2035,-24,23,4
-77,54,-2033,-25,24,8
-78,59,-2043,-25,25,7
-81,55,-2042,-28,21,6
-79,50,-2046,-25,22,2
-81,57,-2036,-26,29,4
-82,52,-2040,-27,24,3
-76,62,-2056,-24,19,8
-84,62,-2032,-25,22,9
-80,52,-2036,-24,18,1
-84,57,-2043,-27,26,4
-80,49,-2050,-29,26,3
-84,55,-2045,-26,20,5
-77,56,-2036,-28,20,2
-79,53,-2044,-30,20,6
-84,50,-2038,-28,24,4
-73,55,-2038,-27,22,8
-80,56,-2047,-25,22,9
-79,52,-2039,-29,21,2
-81,56,-2028,-25,22,3
-81,53,-2038,-30,25,2
-78,57,-2040,-29,21,4
-83,62,-2050,-27,21,6
-73,54,-2050,-27,23,3
-77,57,-2043,-24,22,7
-84,57,-2032,-28,25,3
-84,56,-2049,-25,20,4
-84,59,-2039,-25,20,3
-79,55,-2043,-23,21,3
-78,53,-2040,-29,24,2
-75,53,-2041,-25,23,5
-78,60,-2032,-21,22,3
-82,51,-2043,-26,27,7
-82,61,-2040,-20,26,6
-80,50,-2042,-25,23,3
-87,59,-2041,-23,27,2
-85,60,-2041,-26,19,2
-83,57,-2037,-25,27,7
-88,55,-2057,-27,24,4
-82,47,-2038,-26,21,7
-79,51,-2040,-27,24,-1
-82,58,-2033,-29,24,5
-74,63,-2061,-27,21,7
-76,57,-2040,-23,25,6
-74,59,-2043,-27,23,4
-83,56,-2040,-26,20,7
-80,58,-2039,-30,21,5
-81,49,-2047,-26,24,8
-88,60,-2041,-23,24,4
-83,61,-2042,-26,24,2
-84,57,-2040,-30,21,4
-81,49,-2034,-25,21,5
-75,55,-2053,-22,24,6
-83,58,-2047,-23,26,5
-78,54,-2047,-24,24,3
-84,55,-2049,-25,24,4
-81,60,-2046,-24,26,6
-80,56,-2034,-29,22,5
-83,59,-2039,-27,24,9
-78,47,-2046,-27,26,9
-80,58,-2043,-24,22,2
-81,56,-2044,-29,24,8
-82,49,-2050,-27,24,7
-81,58,-2043,-28,22,4
-73,62,-2049,-28,21,6
-86,51,-2041,-27,23,6
-73,59,-2047,-23,22,9
-78,51,-2041,-27,20,6
-71,56,-2034,-27,21,8
-81,53,-2028,-27,24,6
-82,60,-2045,-27,19,8
-82,58,-2043,-28,25,7
-78,49,-2049,-28,24,7
-91,51,-2040,-26,23,8
-83,48,-2038,-26,24,6
-80,58,-2044,-25,23,2
-79,59,-2026,-26,23,6
-83,63,-2048,-29,20,6
-79,51,-2047,-26,23,2
-88,57,-2038,-27,23,6
-88,53,-2041,-25,22,6
-81,55,-2046,-24,18,5
-79,60,-2045,-27,23,2
-77,49,-2036,-26,26,1
-84,54,-2032,-24,20,7
-82,46,-2053,-27,22,3
-76,55,-2049,-26,25,7
-76,53,-2037,-26,24,4
-81,52,-2050,-27,26,7
-87,49,-2042,-27,22,3
-78,53,-2037,-22,25,5
-79,52,-2048,-26,21,10
-82,58,-2048,-24,24,5
-76,63,-2051,-28,25,3
-82,62,-2041,-24,25,8
-83,61,-2046,-26,21,3
-77,60,-2040,-27,21,6
-78,57,-2048,-25,23,3
-74,53,-2037,-28,22,8
-77,54,-2048,-26,26,3
-78,59,-2047,-30,23,5
-96,63,-2049,-27,21,5
-82,60,-2041,-22,22,7
-90,56,-2048,-27,24,3
-81,55,-2038,-27,26,5
-83,54,-2035,-29,24,5
-80,55,-2042,-25,20,6
-81,52,-2038,-25,24,9
-86,62,-2046,-29,22,7
-85,57,-2034,-28,20,5
-84,54,-2059,-25,26,4
-80,54,-2041,-26,24,4
-81,56,-2028,-24,20,4
-87,59,-2045,-26,26,6
-85,58,-2041,-27,22,6
-81,54,-2044,-26,24,7
-78,50,-2032,-26,24,1
-77,56,-2032,-26,22,10
-83,55,-2047,-23,22,6
-84,57,-2051,-25,26,8
-78,55,-2033,-29,22,6
-77,55,-2047,-22,25,6
-79,65,-2033,-24,24,3
-85,53,-2045,-24,25,4
-80,54,-2051,-25,20,6
-76,57,-2041,-26,23,8
-79,55,-2046,-27,23,2
-77,63,-2041,-25,22,4
-84,61,-2045,-27,23,5
-84,50,-2041,-26,22,5
-86,58,-2035,-26,22,6
-85,54,-2042,-25,22,5
-87,52,-2050,-26,21,6
-75,59,-2043,-27,23,7
-79,56,-2048,-27,19,6
-73,58,-2047,-27,22,5
-77,54,-2036,-25,24,4
-77,51,-2047,-26,25,5
-78,59,-2032,-27,20,6
-83,54,-2043,-24,24,5
-89,56,-2039,-23,24,5
-89,55,-2023,-29,24,5
-76,54,-2035,-22,20,6
-85,51,-2042,-23,22,7
-82,58,-2035,-25,24,4
-80,46,-2051,-25,26,5
-79,53,-2036,-25,24,4
-72,57,-2043,-28,22,5
-81,61,-2029,-28,24,2
-84,58,-2034,-26,22,5
-81,55,-2037,-28,25,3
-75,58,-2048,-31,21,7
-78,65,-2042,-27,22,9
-75,60,-2041,-26,22,8
-79,60,-2045,-26,24,4
-74,52,-2058,-27,25,7
-80,52,-2042,-30,23,5
-77,55,-2044,-22,28,5
-85,59,-2045,-29,23,4
-89,54,-2041,-30,20,4
-79,58,-2045,-26,24,7
-73,61,-2044,-25,23,3
-77,55,-2036,-26,24,6
-79,57,-2035,-23,23,7
-78,60,-2039,-22,27,3
-86,49,-2051,-25,18,6
-75,59,-2045,-25,24,2
-83,56,-2042,-24,22,6
-79,61,-2045,-25,25,4
-80,55,-2038,-25,22,6
-83,53,-2037,-23,24,5
-84,56,-2047,-23,28,3
-75,52,-2051,-30,19,8
-75,49,-2037,-25,23,5
-81,58,-2033,-27,26,6
-80,52,-2048,-27,24,4
-85,57,-2038,-26,22,3
-82,53,-2035,-30,23,6
-80,60,-2035,-26,25,5
-84,49,-2039,-28,23,6
-82,58,-2052,-26,27,6
-84,54,-2043,-26,18,8
-80,55,-2038,-27,24,4
-85,60,-2042,-28,17,6
-84,58,-2034,-25,25,4
-88,58,-2049,-25,21,2
-72,49,-2031,-24,22,8
-86,59,-2039,-23,25,5
-88,58,-2057,-29,24,3
-82,59,-2041,-29,23,6
-85,59,-2046,-29,24,8
-82,55,-2037,-24,22,5
-80,59,-2047,-25,23,5
-84,53,-2054,-25,24,1
-85,61,-2037,-24,23,9
-81,57,-2041,-26,23,5
-86,61,-2041,-25,22,6
-82,55,-2042,-27,21,6
-84,56,-2048,-25,25,8
-84,60,-2033,-28,24,6
-84,54,-2042,-24,26,3
-82,53,-2044,-28,20,8
-81,50,-2041,-26,27,5
-82,57,-2042,-24,23,6
-79,50,-2033,-26,24,10
-88,65,-2044,-23,26,7
-82,57,-2039,-25,24,3
-77,59,-2040,-30,23,4
-80,59,-2043,-25,26,6
-79,52,-2034,-29,20,6
-88,56,-2040,-24,21,6
-77,63,-2046,-22,25,4
-88,63,-2043,-30,25,5
-81,63,-2048,-26,27,8
-84,56,-2048,-24,21,5
-78,63,-2049,-26,22,8
-84,51,-2034,-28,27,8
-80,53,-2027,-24,26,3
-82,59,-2039,-27,23,2
-84,55,-2039,-25,23,5
-80,55,-2035,-27,22,6
-80,53,-2048,-29,29,3
-87,50,-2039,-23,25,8
-88,63,-2042,-27,21,1
-85,56,-2030,-24,23,5
-85,54,-2048,-26,20,5
-76,54,-2042,-27,24,1
-83,55,-2057,-25,24,3
-80,60,-2050,-27,25,6
-85,50,-2038,-25,22,6
-81,56,-2046,-25,23,0
-84,56,-2043,-25,22,9
-75,64,-2045,-25,23,6
-77,60,-2045,-25,26,5
-85,59,-2047,-25,25,2
-84,63,-2027,-28,26,6
-86,55,-2046,-27,24,5
-81,58,-2052,-25,25,1
-85,59,-2046,-26,24,7
-79,50,-2049,-27,24,7
-82,48,-2040,-27,23,5
-74,50,-2055,-25,25,7
-79,66,-2040,-29,24,4
-69,60,-2044,-28,25,5
-81,58,-2035,-27,24,6
-84,61,-2035,-23,23,3
-81,56,-2031,-28,23,7
-79,64,-2038,-27,24,9
-87,51,-2044,-29,25,6
-77,55,-2046,-30,22,8
-82,56,-2032,-23,23,4
-81,62,-2045,-28,26,3
-75,59,-2047,-27,25,6
-81,58,-2043,-26,22,7
-87,59,-2038,-31,22,6
-79,59,-2046,-26,28,7
-83,55,-2050,-27,24,4
-83,64,-2038,-28,26,5
-89,61,-2050,-24,23,9
-82,55,-2030,-27,24,9
-84,55,-2040,-30,21,7
-74,57,-2046,-31,21,3
-84,46,-2040,-25,23,8
-84,65,-2051,-28,24,5
-81,53,-2049,-27,22,5
-87,58,-2039,-24,26,4
-80,56,-2057,-28,25,6
-76,67,-2040,-27,20,7
-80,58,-2033,-30,23,9
-79,58,-2044,-28,24,3
-75,47,-2047,-26,23,5
-82,67,-2035,-28,24,5
-82,52,-2042,-25,21,5
-82,60,-2048,-28,24,4
-79,56,-2056,-24,27,4
-76,57,-2047,-29,24,7
-80,59,-2047,-24,21,4
-80,53,-2047,-25,23,9
-87,59,-2037,-26,23,6
-85,61,-2038,-26,23,5
-80,60,-2032,-27,22,10
-82,54,-2040,-29,21,8
-80,55,-2053,-25,26,6
-82,60,-2045,-28,20,8
-84,51,-2040,-25,23,7
-82,56,-2047,-27,25,5
-79,52,-2039,-28,23,5
-89,53,-2039,-29,21,6
-81,57,-2040,-29,23,6
-80,56,-2037,-24,23,8
-82,64,-2045,-26,21,4
-81,59,-2041,-27,24,11
-79,60,-2047,-29,29,5
-83,60,-2045,-24,22,3
-78,61,-2044,-31,23,2
-75,59,-2051,-27,22,1
-87,56,-2049,-25,23,1
-72,51,-2057,-29,26,2
-82,63,-2040,-26,23,5
-87,53,-2044,-25,22,5
-81,59,-2047,-28,21,7
-84,58,-2044,-22,22,4
-70,59,-2042,-26,23,6
-85,62,-2043,-25,23,6
-87,61,-2045,-25,25,7
-91,56,-2051,-26,21,7
-78,52,-2045,-27,21,4
-88,56,-2038,-24,22,3
-81,62,-2045,-24,23,5
-85,58,-2052,-27,21,9
-80,58,-2041,-27,25,7
-84,53,-2046,-26,21,5
-82,60,-2046,-26,22,5
-82,50,-2042,-27,26,4
-80,57,-2031,-23,22,3
-85,60,-2041,-26,24,6
-83,55,-2046,-31,22,5
-73,51,-2029,-25,25,6
-79,57,-2042,-26,25,6
-83,62,-2042,-27,24,0
-87,58,-2041,-26,26,6
-79,51,-2042,-24,24,2
-79,58,-2041,-31,22,7
-83,54,-2038,-26,25,6
-85,58,-2025,-28,20,0
-82,61,-2044,-29,23,7
-81,52,-2044,-31,26,4
-76,60,-2048,-26,26,3
-84,59,-2039,-29,25,7
-86,63,-2043,-27,24,7
-82,62,-2035,-26,19,5
-82,52,-2046,-25,24,7
-84,62,-2041,-26,22,8
-78,54,-2032,-29,23,6
-80,45,-2039,-25,25,7
-80,54,-2059,-25,22,8
-82,58,-2026,-27,22,10
-82,55,-2031,-25,24,7
-74,56,-2042,-27,22,9
-82,60,-2038,-24,23,6
-87,54,-2043,-26,20,4
-85,49,-2038,-25,25,6
-90,55,-2041,-26,23,9
-76,61,-2034,-23,23,1
-78,53,-2044,-25,25,5
-81,54,-2040,-25,26,2
-78,61,-2040,-30,27,6
-80,63,-2041,-29,25,4
-84,58,-2047,-25,23,3
-84,57,-2040,-23,21,7
-83,67,-2032,-25,22,2
-82,55,-2044,-29,25,7
-85,64,-2036,-28,20,4
-75,61,-2039,-28,26,6
-80,56,-2047,-28,24,5
-83,54,-2042,-23,25,4
-78,59,-2052,-25,24,7
-81,56,-2047,-29,27,6
-81,48,-2047,-22,24,3
-75,62,-2051,-30,24,5
-79,52,-2039,-20,23,2
-88,58,-2048,-26,25,7
-72,52,-2031,-28,22,7
-79,54,-2047,-24,25,11
-75,59,-2039,-26,24,6
-84,51,-2032,-22,20,4
-79,57,-2041,-26,23,5
-81,58,-2051,-26,23,4
-89,45,-2037,-28,22,4
-82,56,-2047,-26,22,5
-81,51,-2041,-26,25,7
-84,55,-2051,-29,22,6
-84,57,-2040,-28,25,3
-82,62,-2039,-27,24,8
-79,62,-2051,-25,22,2
-88,52,-2051,-26,21,7
-77,64,-2039,-25,23,5
-79,60,-2033,-24,22,7
-76,60,-2043,-28,20,6
-85,56,-2043,-25,22,6
-81,62,-2040,-31,24,4
-77,50,-2043,-28,24,7
-88,55,-2040,-31,20,2
-79,55,-2035,-28,24,8
-79,51,-2034,-28,20,9
-85,53,-2040,-29,25,3
-76,53,-2045,-26,23,6
-76,50,-2045,-21,23,8
-81,54,-2031,-26,25,4
-87,61,-2045,-25,20,1
-73,58,-2045,-28,21,6
-75,65,-2038,-25,20,5
-89,54,-2048,-26,23,5
-81,58,-2033,-22,21,6
-76,56,-2043,-23,24,1
-84,55,-2043,-30,25,8
-80,57,-2049,-24,24,2
-78,51,-2042,-25,22,3
-81,56,-2053,-24,26,9
-81,45,-2044,-29,22,5
-80,56,-2049,-25,19,5
-79,58,-2041,-27,22,6
-82,58,-2048,-26,24,4
-83,59,-2052,-24,22,7
-82,55,-2043,-26,25,5
-81,54,-2044,-28,26,5
-86,53,-2050,-25,27,7
-75,57,-2039,-24,22,4
-79,51,-2053,-26,23,8
-85,60,-2039,-29,22,1
-79,61,-2060,-28,24,10
-79,62,-2057,-28,26,5
-84,52,-2043,-30,24,6
-83,56,-2034,-26,22,7
-80,61,-2032,-30,23,4
-85,54,-2053,-30,26,4
-88,46,-2031,-26,21,6
-76,61,-2048,-25,24,3
-83,66,-2030,-25,26,6
-71,59,-2045,-29,21,3
-78,61,-2046,-28,24,6
-85,50,-2045,-30,21,4
-80,63,-2039,-27,21,10
-69,62,-2032,-25,24,3
-78,56,-2042,-29,26,0
-82,53,-2044,-25,21,7
-81,66,-2034,-26,19,7
-83,49,-2045,-27,21,4
-79,51,-2045,-25,22,4
-81,58,-2043,-27,21,6
-78,54,-2043,-26,22,2
-80,64,-2019,-27,21,5
-86,60,-2047,-29,26,5
-81,56,-2042,-26,27,5
-77,58,-2039,-29,21,1
-80,55,-2046,-25,23,7
-85,58,-2033,-26,22,3
-84,59,-2032,-26,23,3
-79,52,-2037,-27,24,3
-77,58,-2038,-29,23,6
-76,56,-2049,-24,23,7
-72,64,-2053,-30,23,6
-78,59,-2038,-24,24,7
-83,61,-2048,-27,23,9
-88,58,-2033,-28,23,4
-83,57,-2038,-23,22,4
-87,57,-2040,-26,27,8
-78,59,-2050,-28,24,6
-87,55,-2048,-28,21,9
-77,53,-2034,-27,23,6
-76,58,-2046,-28,21,6
-79,57,-2043,-30,22,5
-80,61,-2050,-32,23,5
-75,61,-2046,-26,23,8
-89,51,-2038,-26,25,2
-89,54,-2034,-22,24,2
-71,51,-2045,-27,24,6
-79,52,-2041,-24,22,7
-83,53,-2051,-31,22,5
-84,62,-2044,-27,22,5
-82,63,-2044,-24,22,8
-75,58,-2054,-26,23,7
-80,57,-2046,-25,25,1
-76,57,-2050,-24,24,8
-76,55,-2044,-27,24,4
-76,65,-2048,-27,21,3
-81,60,-2036,-25,23,2
-79,53,-2047,-24,24,7
-83,63,-2038,-25,23,6
-76,58,-2038,-25,22,4
-79,56,-2042,-27,21,8
-77,52,-2036,-26,24,9
-82,57,-2042,-25,26,4
-88,55,-2044,-27,25,9
-89,62,-2038,-27,18,5
-85,59,-2054,-26,25,3
-79,55,-2047,-25,26,8
-80,61,-2041,-26,22,5
-78,55,-2049,-23,24,7
-84,58,-2044,-27,21,2
-78,56,-2038,-29,23,8
-85,54,-2042,-26,22,7
-83,65,-2037,-29,22,6
-79,54,-2052,-28,22,2
-75,55,-2050,-26,24,3
-82,52,-2041,-26,23,4
-82,51,-2049,-30,21,3
-83,63,-2042,-29,24,6
-86,49,-2051,-25,21,8
-77,48,-2041,-24,23,10
-84,60,-2037,-23,24,7
-83,63,-2031,-25,23,3
-88,62,-2050,-24,23,5
-84,58,-2031,-28,20,6
-84,53,-2048,-24,21,7
-81,62,-2039,-30,23,6
-77,55,-2046,-25,22,5
-69,49,-2034,-30,24,3
-88,64,-2036,-25,24,9
-79,59,-2043,-25,22,7
-81,57,-2045,-26,22,7
-74,56,-2047,-22,23,3
-74,54,-2048,-24,18,3
-80,57,-2035,-28,24,2
-85,54,-2033,-26,25,4
-75,63,-2043,-28,24,9
-80,60,-2057,-22,21,6
-74,59,-2042,-27,21,6
-76,60,-2044,-30,21,8
-77,47,-2051,-24,21,4
-83,62,-2053,-25,25,6
-82,58,-2051,-29,23,1
-76,54,-2042,-28,26,4
-75,52,-2036,-24,25,8
-77,54,-2045,-27,18,4
-76,60,-2031,-24,24,6
-75,59,-2049,-26,24,3
-82,58,-2052,-28,23,0
-81,54,-2052,-26,21,10
-78,62,-2043,-28,23,1
-83,62,-2038,-27,21,3
-77,61,-2038,-26,26,4
-80,59,-2038,-28,21,7
-80,52,-2033,-29,21,3
-86,61,-2044,-28,22,8
-78,52,-2045,-25,22,3
-86,59,-2044,-30,21,6
-73,60,-2044,-28,21,8
-85,57,-2041,-24,20,4
-82,53,-2035,-30,24,5
-82,60,-2036,-27,20,4
-86,53,-2048,-27,25,8
-75,67,-2051,-27,23,2
-82,59,-2046,-31,23,9
-83,65,-2047,-27,21,4
-88,53,-2039,-25,23,5
-83,54,-2058,-27,26,3
-81,64,-2043,-26,25,9
-77,58,-2052,-25,24,4
-79,54,-2063,-25,22,4
-78,67,-2056,-28,22,3
-81,62,-2038,-27,22,7
-77,59,-2045,-28,24,6
-75,58,-2041,-25,25,4
-78,48,-2034,-27,24,7
-76,58,-2045,-23,22,7
-73,61,-2049,-29,25,7
-81,57,-2044,-30,22,5
-81,59,-2038,-28,23,10
-83,61,-2038,-28,24,2
-76,61,-2047,-28,22,9
-87,68,-2045,-26,23,7
-81,55,-2029,-29,22,6
-77,56,-2039,-27,23,4
-87,52,-2043,-30,22,6
-86,58,-2036,-26,25,7
-78,52,-2048,-25,23,6
-79,59,-2041,-30,26,4
-82,52,-2044,-27,21,7
-84,56,-2042,-27,25,7
-81,60,-2035,-27,23,5
-80,58,-2049,-28,21,6
-78,58,-2050,-25,24,3
-75,58,-2041,-27,23,6
-85,58,-2040,-31,19,9
-76,58,-2036,-28,20,1
-83,55,-2048,-30,26,6
-93,61,-2045,-28,21,6
-85,57,-2052,-26,23,3
-85,60,-2041,-29,23,7
-78,56,-2033,-28,25,4
-87,53,-2046,-23,23,7
-88,52,-2054,-26,26,2
-85,58,-2039,-27,18,6
-82,60,-2040,-27,20,2
-87,60,-2031,-23,21,6
-89,54,-2048,-24,24,6
-78,64,-2035,-29,23,6
-91,56,-2039,-27,24,2
-79,49,-2036,-28,18,5
-81,61,-2053,-30,25,3
-78,53,-2050,-25,21,7
-90,57,-2044,-25,22,6
-81,49,-2042,-30,23,5
-84,58,-2043,-24,20,9
-84,57,-2038,-26,22,7
-81,52,-2042,-29,23,3
-74,50,-2048,-30,24,8
-83,54,-2034,-26,20,8
-74,67,-2032,-27,26,0
-76,55,-2045,-26,24,5
-75,50,-2056,-30,21,5
-81,54,-2043,-30,24,2
-86,54,-2043,-28,21,5
-84,61,-2041,-25,21,6
-82,59,-2032,-28,23,7
-80,52,-2037,-26,22,5
-86,53,-2039,-30,24,7
-91,57,-2025,-27,22,4
-81,48,-2036,-25,22,6
-83,54,-2040,-24,23,3
-79,60,-2039,-30,21,4
-79,49,-2039,-25,22,6
-81,65,-2048,-27,24,7
-77,53,-2048,-28,29,4
-80,51,-2029,-27,24,3
-78,58,-2038,-27,22,5
-88,58,-2037,-26,21,3
-77,55,-2031,-25,24,5
-87,54,-2047,-27,23,5
-84,54,-2052,-25,22,9
-76,55,-2041,-26,20,4
-86,63,-2031,-24,24,9
-85,44,-2058,-28,27,6
-78,56,-2047,-28,22,8
-86,58,-2049,-26,22,5
-85,53,-2041,-25,24,6
-88,59,-2042,-27,23,3
-80,58,-2049,-29,22,5
-73,52,-2048,-26,26,4
-73,59,-2039,-28,22,2
-79,53,-2038,-25,24,6
-84,63,-2029,-27,24,8
-80,61,-2044,-22,23,-1
-86,52,-2049,-26,23,5
-83,60,-2034,-27,25,5
-84,58,-2031,-22,20,5
-82,56,-2036,-26,26,7
-76,56,-2044,-27,20,2
-83,57,-2047,-25,24,8
-85,53,-2041,-29,23,6
-87,55,-2032,-25,25,4
-90,50,-2034,-24,25,8
-83,56,-2049,-25,23,7
-86,56,-2045,-28,26,5
-83,56,-2033,-27,23,2
-81,55,-2043,-29,26,2
-81,56,-2041,-24,24,7
-76,47,-2035,-25,18,2
-84,59,-2042,-27,20,9
-75,60,-2039,-28,23,6
-93,53,-2029,-26,23,9
-79,57,-2039,-28,23,7
-79,65,-2057,-24,22,7
-91,62,-2040,-26,25,5
-84,53,-2044,-26,22,5
-93,52,-2042,-26,25,5
-76,51,-2038,-25,23,8
-79,49,-2043,-27,22,2
-84,61,-2049,-28,20,7
-78,59,-2029,-27,25,3
-82,55,-2033,-27,26,3
-85,58,-2038,-24,22,3
-76,53,-2047,-24,22,2
-85,59,-2036,-26,23,1
-77,61,-2033,-27,26,8
-79,53,-2047,-25,21,7
-73,54,-2045,-27,27,-1
-79,55,-2042,-29,26,5
-82,52,-2046,-23,24,8
-81,59,-2048,-25,19,4
-85,61,-2042,-26,21,7
-93,52,-2038,-27,26,6
-84,55,-2042,-26,22,7
-71,62,-2045,-30,20,7
-85,54,-2038,-25,20,6
-81,58,-2049,-26,22,7
-82,55,-2046,-24,23,4
-86,56,-2040,-24,22,6
-78,58,-2038,-25,27,5
-97,53,-2042,-28,22,5
-79,50,-2038,-27,25,5
-82,57,-2051,-28,25,3
-86,53,-2045,-25,26,8
-82,53,-2032,-22,21,6
-90,56,-2042,-28,26,4
-86,57,-2037,-29,24,4
-82,55,-2039,-26,24,8
-82,51,-2046,-28,20,5
-80,60,-2033,-26,25,7
-83,56,-2046,-27,23,8
-76,54,-2035,-29,20,9
-76,59,-2042,-26,23,4
-85,57,-2031,-28,23,6
-89,64,-2041,-30,23,2
-82,58,-2050,-28,26,6
-92,53,-2040,-27,21,2
-85,57,-2046,-27,26,2
-80,56,-2040,-26,27,5
-81,56,-2036,-27,24,5
-73,57,-2042,-28,21,4
-80,59,-2050,-26,22,5
-82,54,-2033,-28,22,3
-78,53,-2043,-24,20,3
-85,53,-2031,-25,21,5
-80,52,-2050,-24,24,4
-78,52,-2047,-28,23,4
-83,55,-2042,-26,24,6
-79,57,-2041,-24,20,5
-77,53,-2033,-27,22,7
-85,61,-2050,-26,23,9
-83,56,-2043,-27,20,3
-74,57,-2033,-28,25,5
-82,65,-2050,-30,19,5
-85,54,-2036,-28,22,7
-81,51,-2046,-25,22,5
-80,55,-2052,-27,21,6
-86,56,-2041,-27,23,6
-81,53,-2048,-27,24,7
-84,65,-2039,-26,23,5
-84,52,-2029,-29,22,5
-86,60,-2034,-24,22,3
-85,52,-2049,-30,26,6
-81,54,-2049,-24,24,5
-89,53,-2042,-27,21,5
-82,49,-2035,-29,25,4
-77,54,-2042,-27,22,2
-83,57,-2044,-26,26,4
-80,57,-2037,-25,27,4
-86,58,-2042,-25,20,4
-83,52,-2039,-25,23,6
-83,58,-2035,-25,23,6
-89,52,-2042,-26,22,6
-76,59,-2045,-26,23,9
-80,53,-2034,-27,20,6
-85,49,-2036,-25,27,7
-86,55,-2042,-24,18,4
-78,63,-2038,-27,20,5
-78,56,-2043,-27,26,7
-89,59,-2034,-23,26,7
-86,54,-2043,-25,27,7
-81,61,-2032,-26,24,6
-80,55,-2039,-27,24,5
-75,59,-2035,-27,22,5
-83,57,-2053,-26,21,6
-88,65,-2048,-25,21,6
-78,52,-2038,-27,23,9
-86,52,-2044,-27,26,3
-81,55,-2037,-26,26,7
-80,58,-2042,-27,23,3
-78,52,-2027,-24,22,10
-80,56,-2043,-27,22,2
-79,63,-2048,-27,25,4
-87,66,-2031,-26,23,6
-80,62,-2046,-26,25,5
-83,62,-2046,-25,24,8
-84,60,-2042,-31,20,10
-79,54,-2045,-24,22,3
-86,58,-2029,-31,25,5
-77,57,-2036,-27,21,3
-79,55,-2044,-28,24,4
-88,51,-2051,-24,24,4
-78,59,-2050,-25,24,4
-85,53,-2045,-28,27,6
-79,54,-2044,-23,23,4
-77,65,-2044,-30,24,4
-77,68,-2044,-27,23,6
-89,60,-2049,-23,26,2
-78,55,-2037,-29,23,5
-74,56,-2040,-25,24,7
-80,59,-2043,-27,20,4
-76,59,-2038,-26,25,5
-80,54,-2047,-23,21,5
-79,50,-2030,-24,25,3
-75,62,-2040,-27,22,7
-70,60,-2045,-29,22,4
-82,58,-2043,-24,20,8
-78,59,-2041,-27,23,5
-89,60,-2054,-26,23,11
-85,59,-2044,-25,22,2
-77,59,-2044,-26,22,1
-83,56,-2048,-26,24,7
-82,51,-2048,-29,26,2
-84,48,-2039,-31,23,6
-79,56,-2045,-26,22,7
-78,60,-2038,-27,24,4
-76,65,-2050,-28,24,6
-78,58,-2057,-29,24,5
-83,61,-2041,-26,23,9
-77,59,-2051,-26,22,2
-79,55,-2048,-24,24,6
-83,63,-2046,-27,24,9
-80,55,-2038,-29,24,9
-79,56,-2038,-28,22,5
-85,64,-2049,-22,23,4
-80,53,-2039,-25,22,6
-86,59,-2049,-29,22,5
-76,57,-2040,-28,24,7
-79,56,-2043,-22,25,2
-84,59,-2037,-25,23,4
-85,53,-2042,-28,24,8
-81,60,-2035,-27,24,5
-75,56,-2038,-25,20,7
-90,50,-2043,-27,23,5
-83,57,-2034,-29,20,6
-85,55,-2041,-26,24,7
-83,61,-2052,-27,23,9
-90,56,-2043,-27,22,3
-83,52,-2042,-26,22,4
-84,54,-2044,-25,24,4
-85,65,-2035,-27,20,5
-77,61,-2035,-29,24,0
-82,64,-2040,-29,22,5
-82,51,-2042,-25,19,7
-81,57,-2047,-27,20,4
-80,60,-2037,-27,19,7
-83,52,-2050,-26,26,4
-79,55,-2047,-24,25,10
-83,50,-2043,-29,25,5
-89,63,-2040,-27,25,4
-89,53,-2038,-26,23,4
-87,57,-2043,-28,21,6
-79,58,-2048,-28,22,6
-81,57,-2026,-25,23,3
-70,53,-2045,-27,20,6
-82,57,-2038,-26,23,8
-89,59,-2033,-28,23,6
-87,62,-2033,-26,26,6
-78,49,-2050,-26,23,4
-85,62,-2045,-24,24,4
-69,50,-2045,-25,22,3
-82,55,-2039,-28,29,4
-88,50,-2057,-26,25,9
-82,58,-2035,-32,21,4
-80,56,-2048,-30,22,1
-86,61,-2042,-21,22,6
-84,49,-2043,-27,23,6
-84,54,-2048,-25,25,7
-83,63,-2047,-26,24,5
-79,53,-2042,-30,28,4
-85,56,-2043,-27,22,5
-81,62,-2046,-26,24,5
-89,62,-2043,-28,23,3
-80,65,-2031,-28,24,8
-75,61,-2041,-25,24,0
-87,57,-2047,-25,24,4
-87,64,-2053,-28,26,4
-81,59,-2038,-24,22,2
-77,56,-2026,-26,25,3
-95,52,-2054,-26,25,4
-80,61,-2045,-25,23,1
-87,54,-2039,-28,23,6
-80,49,-2036,-28,24,7
-82,63,-2039,-29,24,5
-94,54,-2041,-29,23,3
-83,52,-2041,-25,24,4
-86,61,-2042,-25,22,4
-89,56,-2053,-27,24,2
-79,56,-2038,-26,22,1
-86,57,-2039,-25,24,6
-89,59,-2052,-29,19,1
-77,49,-2045,-25,20,8
-91,61,-2040,-25,26,5
-75,57,-2041,-29,25,3
-82,60,-2046,-28,24,3
-84,59,-2043,-29,23,3
-85,59,-2033,-29,20,8
-76,58,-2047,-29,22,1
-90,56,-2040,-26,26,6
-86,55,-2036,-25,20,6
-77,56,-2032,-25,22,5
-83,52,-2027,-27,21,7
-84,55,-2039,-27,23,10
-84,59,-2035,-28,27,4
-87,62,-2044,-29,22,7
-87,54,-2039,-28,23,6
-83,58,-2039,-25,23,5
-86,58,-2047,-25,22,3
-76,69,-2030,-24,19,8
-87,62,-2044,-29,26,6
-85,66,-2049,-25,21,5
-83,55,-2038,-23,24,6
-81,52,-2037,-27,21,7
-79,55,-2042,-24,26,9
-82,58,-2043,-28,25,4
-82,56,-2047,-22,27,2
-87,49,-2041,-27,23,3
-81,56,-2053,-26,22,3
-84,58,-2037,-27,22,2
-86,55,-2048,-27,23,6
-89,62,-2046,-26,23,6
-80,65,-2042,-28,22,3
-80,57,-2040,-26,24,9
-90,57,-2035,-26,22,7
-86,64,-2044,-27,25,4
-84,62,-2044,-28,21,4
-78,64,-2048,-27,25,10
-79,55,-2038,-28,26,5
-83,58,-2047,-26,23,7
-79,47,-2041,-26,21,7
-82,56,-2035,-30,21,4
-78,55,-2043,-25,27,3
-77,50,-2042,-28,25,5
-76,58,-2043,-24,21,5
-77,56,-2034,-26,22,4
-91,56,-2047,-25,25,9
-82,52,-2038,-27,19,4
-84,52,-2034,-24,22,7
-82,66,-2052,-27,26,4
-82,63,-2036,-25,23,3
-79,59,-2045,-26,25,8
-85,58,-2045,-29,27,5
-77,60,-2043,-24,28,8
-82,56,-2044,-21,20,11
-86,59,-2042,-27,24,8
-82,59,-2041,-27,21,4
-80,58,-2042,-26,19,3
-76,57,-2041,-23,24,5
-77,59,-2038,-23,25,9
-80,52,-2046,-29,25,7
-88,63,-2044,-25,21,5
-84,57,-2045,-25,23,7
-75,57,-2042,-29,24,9
-85,59,-2035,-28,21,-1
-81,51,-2044,-27,24,5
-81,51,-2041,-24,26,4
-89,52,-2047,-27,26,6
-81,62,-2045,-26,24,4
-89,61,-2049,-26,28,8
-88,52,-2038,-28,19,5
-80,58,-2043,-26,24,7
-76,54,-2051,-25,25,3
-80,47,-2042,-27,23,5
-75,59,-2052,-26,20,2
-90,54,-2031,-24,19,7
-84,60,-2044,-26,22,3
-83,54,-2041,-27,24,3
-85,58,-2042,-27,23,11
-77,56,-2040,-25,28,4
-85,69,-2037,-26,23,6
-79,56,-2017,-26,24,5
-90,60,-2048,-28,23,6
-80,56,-2046,-28,22,5
-71,60,-2051,-28,22,7
-82,67,-2045,-25,23,4
-87,55,-2042,-20,23,7
-79,50,-2031,-22,21,6
-79,52,-2037,-24,24,6
-89,51,-2043,-24,21,5
-80,50,-2032,-30,25,1
-85,63,-2031,-22,25,6
-86,55,-2054,-25,25,3
-81,65,-2037,-27,23,7
-87,53,-2033,-26,22,4
-78,58,-2040,-23,21,8
-80,53,-2036,-24,22,5
-80,61,-2040,-31,24,6
-75,58,-2048,-29,23,2
-80,54,-2042,-26,27,7
-85,55,-2044,-28,21,2
-82,60,-2032,-26,22,8
-83,55,-2042,-27,21,4
-77,54,-2037,-29,24,4
-86,51,-2042,-28,23,9
-85,55,-2053,-24,25,5
-78,55,-2035,-25,21,7
-77,55,-2036,-27,25,5
-81,56,-2043,-27,23,5
-81,63,-2041,-24,25,7
-84,59,-2035,-29,22,3
-84,55,-2031,-27,19,9
-84,56,-2039,-26,26,5
-85,57,-2040,-29,21,3
-82,57,-2041,-25,24,3
-73,54,-2038,-28,25,4
-83,50,-2037,-27,27,4
-84,62,-2043,-25,20,6
-76,59,-2043,-26,26,7
-78,65,-2047,-24,23,5
-81,61,-2045,-29,24,9
-85,60,-2037,-27,25,6
-77,55,-2056,-27,24,5
-87,53,-2043,-24,24,8
-81,53,-2038,-30,24,6
-77,59,-2054,-29,25,10
-86,58,-2043,-28,22,4
-80,52,-2046,-26,22,4
-76,55,-2040,-27,24,4
-85,55,-2039,-27,25,7
-73,55,-2030,-23,23,5
-80,60,-2046,-28,22,1
-85,57,-2037,-24,26,6
-77,58,-2030,-24,22,5
-82,55,-2038,-25,24,5
-84,49,-2044,-26,28,3
-87,55,-2034,-31,22,-1
-88,59,-2044,-24,23,3
-83,64,-2046,-25,23,5
-77,58,-2033,-25,29,3
-88,58,-2047,-30,24,6
-77,57,-2042,-30,18,6
-86,60,-2035,-24,25,8
-83,65,-2032,-26,24,1
-80,57,-2048,-27,20,7
-81,53,-2043,-25,21,4
-77,57,-2046,-29,25,3
-78,54,-2049,-28,24,3
-86,56,-2035,-25,26,3
-81,57,-2038,-27,23,4
-89,56,-2044,-25,22,8
-75,58,-2038,-27,25,8
-85,51,-2053,-27,22,1
-84,52,-2046,-26,25,3
-76,54,-2044,-28,21,7
-87,61,-2046,-26,24,6
-87,50,-2035,-26,22,6
-85,52,-2037,-26,22,4
-77,58,-2051,-28,23,2
-76,59,-2047,-26,24,8
-80,62,-2043,-27,21,0
-88,55,-2029,-27,21,3
-79,55,-2052,-26,21,2
-78,59,-2040,-25,22,4
-81,60,-2033,-23,25,6
-75,64,-2055,-25,22,13
-80,60,-2059,-25,27,7
-78,64,-2034,-27,26,1
-86,54,-2053,-26,24,3
-80,50,-2044,-25,21,5
-74,56,-2048,-27,21,5
-76,52,-2047,-26,24,7
-88,52,-2053,-28,24,3
-77,53,-2036,-29,26,9
-74,55,-2042,-26,27,3
-80,57,-2039,-27,22,6
-88,53,-2050,-26,21,10
-87,55,-2049,-26,19,7
-86,53,-2062,-30,24,5
-79,53,-2045,-27,26,6
-81,49,-2044,-28,21,6
-84,49,-2034,-24,23,5
-78,60,-2041,-27,22,6
-82,60,-2040,-21,23,7
-84,53,-2043,-24,26,3
-76,61,-2035,-25,21,4
-83,55,-2043,-28,22,6
-77,57,-2044,-28,20,9
-82,61,-2036,-28,22,6
-86,51,-2032,-27,27,5
-82,57,-2040,-28,21,5
-86,58,-2033,-29,25,4
-85,60,-2042,-27,22,8
-83,49,-2043,-28,23,6
-83,53,-2033,-25,24,7
-81,57,-2045,-29,23,8
-77,57,-2046,-24,27,7
-78,63,-2046,-26,26,6
-79,55,-2042,-26,27,8
-89,59,-2044,-31,23,4
-75,55,-2040,-22,21,4
-82,52,-2052,-24,22,4
-80,55,-2037,-31,24,4
-78,56,-2043,-26,24,6
-84,57,-2041,-30,22,12
-83,57,-2040,-27,24,7
-81,62,-2043,-22,23,7
-84,60,-2038,-28,23,6
-81,54,-2046,-25,25,6
-86,50,-2050,-27,24,6
-83,54,-2058,-27,24,10
-84,64,-2040,-28,24,5
-82,61,-2046,-27,22,6
-81,52,-2048,-28,19,5
-75,64,-2049,-26,26,4
-81,56,-2046,-27,21,6
-81,54,-2041,-28,25,3
-75,53,-2049,-29,22,5
-86,62,-2040,-28,23,1
-87,57,-2039,-27,22,5
-79,58,-2036,-30,24,1
-80,55,-2045,-27,19,6
-83,61,-2038,-26,23,7
-82,61,-2046,-29,22,5
-78,61,-2040,-22,21,1
-74,58,-2045,-24,24,3
-83,60,-2044,-26,23,9
-87,72,-2043,-25,23,5
-92,60,-2033,-28,24,7
-77,61,-2040,-31,23,2
-86,63,-2028,-22,22,11
-87,58,-2044,-29,24,9
-79,54,-2047,-27,26,8
-89,66,-2042,-25,23,2
-79,59,-2035,-27,23,4
-75,55,-2034,-26,24,4
-84,57,-2038,-26,22,2
-76,49,-2040,-28,23,4
-81,62,-2045,-27,23,6
-78,52,-2042,-27,22,6
-82,63,-2046,-27,26,6
-81,59,-2043,-25,22,9
-84,54,-2045,-28,23,1
-79,51,-2050,-28,19,8
-87,59,-2035,-25,24,8
-83,59,-2046,-30,23,5
-88,60,-2032,-25,22,4
-85,58,-2056,-28,23,10
-71,54,-2033,-26,22,2
-82,62,-2035,-28,26,6
-82,56,-2036,-31,22,8
-88,54,-2041,-23,25,5
-78,64,-2047,-26,23,2
-81,60,-2048,-26,26,10
-78,55,-2042,-25,24,5
-76,60,-2035,-25,24,7
-85,52,-2037,-25,21,5
-82,66,-2045,-29,23,7
-85,51,-2042,-29,21,5
-85,63,-2053,-28,24,9
-76,58,-2044,-26,24,5
-78,57,-2027,-25,23,5
-81,58,-2037,-27,20,4
-76,67,-2043,-28,18,5
-79,60,-2039,-24,24,2
-78,54,-2037,-26,22,4
-76,57,-2043,-28,26,10
-77,65,-2040,-25,22,6
-79,57,-2044,-28,25,10
-80,56,-2043,-26,23,7
-91,59,-2031,-27,19,2
-89,58,-2048,-27,21,4
-79,62,-2046,-29,23,5
-91,52,-2048,-25,26,2
-80,57,-2050,-26,23,7
-78,59,-2046,-26,25,6
-83,57,-2046,-28,24,4
-90,52,-2039,-27,23,6
-78,56,-2030,-28,21,3
-80,56,-2044,-27,23,3
-79,54,-2049,-28,21,6
-82,57,-2042,-27,23,6
-81,61,-2038,-28,27,6
-75,53,-2028,-25,22,5
-82,62,-2036,-27,25,5
-78,56,-2040,-29,27,7
-78,63,-2039,-25,23,4
-88,63,-2043,-26,22,4
-85,59,-2047,-25,22,5
-74,53,-2045,-28,21,6
-86,59,-2037,-25,27,5
-82,62,-2043,-25,26,5
-84,62,-2040,-27,24,4
-83,52,-2047,-25,19,3
-88,55,-2031,-26,23,8
-79,57,-2043,-28,23,10
-82,57,-2050,-23,23,7
-76,51,-2049,-25,21,7
-80,52,-2037,-27,23,6
-80,58,-2040,-23,21,4
-78,61,-2033,-26,25,6
-81,50,-2044,-27,23,6
-82,65,-2036,-24,19,1
-82,58,-2043,-28,22,6
-82,61,-2035,-25,24,5
-83,59,-2033,-28,21,2
-84,57,-2039,-29,22,5
-83,56,-2053,-28,19,4
-78,50,-2041,-26,25,6
-77,56,-2046,-28,21,2
-80,58,-2036,-23,24,8
-85,57,-2043,-28,21,6
-80,54,-2041,-28,26,5
-77,53,-2038,-27,20,5
-84,56,-2045,-25,23,8
-87,55,-2039,-25,22,9
-81,62,-2043,-26,24,7
-84,57,-2043,-25,21,6
-82,58,-2043,-27,23,5
-79,53,-2042,-29,18,5
-88,54,-2037,-23,25,7
-85,54,-2043,-27,23,3
-91,48,-2022,-30,26,4
-78,58,-2054,-25,22,2
-82,61,-2042,-28,20,6
-84,56,-2041,-25,23,6
-80,56,-2058,-27,22,6
-84,63,-2038,-26,22,11
-86,64,-2039,-26,23,10
-82,57,-2043,-27,22,5
-79,58,-2038,-24,26,3
-86,59,-2049,-28,27,4
-90,58,-2047,-26,22,9
-77,57,-2036,-25,22,8
-86,54,-2044,-25,19,7
-81,54,-2054,-27,24,4
-81,54,-2044,-25,25,3
-83,53,-2044,-23,21,2
-81,61,-2056,-27,24,7
-76,58,-2047,-27,24,1
-82,64,-2051,-28,25,7
-85,58,-2045,-24,26,6
-81,58,-2057,-27,26,8
-80,54,-2041,-27,22,4
-83,60,-2030,-30,22,5
-80,54,-2038,-27,25,5
-87,55,-2053,-26,18,4
-81,59,-2046,-25,22,3
-81,57,-2035,-25,24,4
-75,63,-2047,-25,23,8
-75,57,-2042,-23,23,3
-85,55,-2042,-23,22,6
-84,56,-2037,-26,21,8
-74,58,-2034,-29,20,4
-74,59,-2037,-27,19,5
-83,57,-2045,-25,23,7
-75,43,-2049,-26,22,5
-87,56,-2037,-27,23,8
-76,60,-2051,-25,22,6
-78,60,-2044,-30,20,3
-83,51,-2037,-25,26,4
-76,63,-2040,-27,22,3
-79,58,-2043,-23,25,3
-84,61,-2041,-26,26,7
-80,54,-2045,-26,20,3
-77,54,-2047,-25,24,7
-77,60,-2043,-27,22,10
-84,52,-2047,-28,24,5
-85,50,-2059,-27,24,5
-82,73,-2046,-26,26,10
-84,56,-2043,-26,22,6
-70,56,-2055,-25,22,6
-83,50,-2046,-29,21,3
-78,55,-2042,-27,21,3
-79,62,-2033,-27,19,6
-86,50,-2040,-26,25,5
-83,54,-2047,-28,22,7
-83,59,-2045,-24,20,4
-89,53,-2042,-26,18,8
-86,54,-2052,-28,23,6
-80,47,-2045,-28,20,8
-85,52,-2035,-25,21,7
-80,57,-2046,-29,22,7
-84,59,-2040,-30,25,5
-79,60,-2044,-25,24,6
-82,58,-2038,-22,24,6
-87,62,-2034,-26,22,8
-80,54,-2048,-26,21,6
-78,52,-2044,-29,23,4
-78,51,-2043,-29,22,5
-83,52,-2052,-26,24,2
-77,64,-2044,-27,22,1
-88,51,-2041,-28,22,3
-91,57,-2043,-27,26,5
-83,53,-2039,-28,24,8
-76,56,-2045,-28,25,5
-84,62,-2051,-25,25,5
-73,51,-2040,-28,23,6
-77,59,-2030,-24,23,8
-82,57,-2035,-24,25,6
-85,52,-2030,-26,21,3
-86,51,-2046,-26,24,8
-79,57,-2039,-27,23,6
-82,67,-2034,-25,24,4
-81,55,-2040,-27,23,-2
-88,60,-2043,-25,24,9
-83,58,-2043,-23,24,10
-76,56,-2044,-27,23,7
-84,49,-2041,-25,24,7
-79,48,-2047,-24,25,7
-80,59,-2041,-26,26,5
-86,60,-2038,-28,21,6
-82,59,-2047,-26,21,5
-71,57,-2044,-23,22,3
-91,53,-2049,-25,20,8
-79,57,-2047,-28,25,8
-81,54,-2050,-28,20,6
-83,62,-2040,-27,25,5
-80,55,-2036,-28,20,5
-82,62,-2043,-28,27,5
-83,63,-2037,-27,24,5
-81,53,-2047,-23,23,6
-86,60,-2038,-25,25,8
-78,59,-2036,-23,23,5
-78,56,-2044,-25,24,7
-81,59,-2041,-25,22,9
-80,61,-2042,-25,25,5
-84,55,-2041,-27,25,3
-74,57,-2042,-26,24,6
-79,60,-2036,-26,23,5
-81,53,-2041,-26,24,5
-79,57,-2044,-24,19,5
-84,61,-2031,-27,24,7
-83,63,-2038,-26,25,4
-81,57,-2032,-28,25,7
-69,59,-2039,-25,24,12
-77,49,-2042,-23,21,8
-81,52,-2043,-24,21,7
-76,46,-2042,-26,23,6
-82,58,-2035,-25,21,3
-77,56,-2034,-28,25,5
-86,57,-2035,-22,24,7
-86,59,-2047,-23,24,4
-83,54,-2048,-27,20,10
-80,51,-2049,-24,25,3
-79,56,-2035,-27,23,9
-75,57,-2039,-27,25,7
-77,57,-2042,-27,22,1
-77,59,-2044,-31,23,6
-86,58,-2046,-22,21,8
-78,58,-2034,-25,23,6
-83,50,-2044,-24,20,4
-80,59,-2032,-24,26,5
-79,61,-2035,-26,26,1
-78,62,-2036,-27,21,4
-86,61,-2043,-22,24,6
-85,51,-2036,-24,21,9
-82,57,-2039,-28,24,11
-81,55,-2036,-27,24,3
-81,56,-2041,-26,25,4
-79,50,-2036,-23,21,2
-90,60,-2034,-27,24,4
-76,62,-2040,-29,20,3
-81,60,-2048,-26,23,6
-76,52,-2030,-25,24,4
-78,58,-2041,-26,21,2
-80,52,-2047,-27,25,8
-81,62,-2044,-24,20,8
-93,54,-2046,-29,26,9
-78,58,-2048,-28,23,6
-84,58,-2031,-22,19,5
-83,54,-2035,-24,19,6
-80,62,-2037,-26,22,8
-84,62,-2047,-27,20,6
-78,50,-2034,-27,20,3
-85,52,-2053,-26,22,7
-83,56,-2050,-24,24,4
-80,59,-2037,-24,24,3
-79,59,-2039,-27,24,5
-83,63,-2043,-27,24,5
-84,58,-2050,-25,25,4
-83,59,-2045,-26,20,4
-84,52,-2049,-27,21,3
-81,58,-2035,-25,26,5
-79,54,-2045,-27,21,7
-82,60,-2040,-26,24,2
-77,61,-2032,-24,28,4
-81,52,-2040,-27,23,5
-78,65,-2054,-24,23,7
-76,55,-2035,-27,23,8
-77,60,-2037,-24,22,7
-84,60,-2039,-26,20,3
-81,56,-2039,-32,26,5
-79,62,-2045,-27,24,6
-75,56,-2043,-27,21,8
-90,67,-2036,-25,26,5
-85,56,-2043,-24,23,6
-83,49,-2043,-24,22,1
-86,50,-2046,-27,20,4
-78,57,-2044,-25,23,11
-84,55,-2028,-28,21,8
-83,56,-2043,-27,22,5
-77,49,-2051,-27,21,0
-76,61,-2029,-27,26,4
-84,55,-2045,-29,23,5
-84,59,-2033,-29,28,4
-79,59,-2042,-30,24,9
-77,66,-2044,-29,22,6
-79,50,-2037,-24,26,4
-79,63,-2044,-25,26,1
-92,52,-2048,-24,26,4
-85,51,-2042,-26,25,9
-83,54,-2032,-27,25,5
-76,58,-2044,-24,24,5
-78,55,-2038,-27,23,4
-83,61,-2032,-29,25,4
-81,57,-2046,-26,21,8
-75,51,-2040,-28,23,9
-82,59,-2044,-27,23,4
-77,51,-2033,-29,24,4
-77,57,-2044,-27,23,5
-82,56,-2052,-24,21,5
-80,59,-2028,-26,19,3
-81,48,-2047,-25,24,6
-85,59,-2038,-27,25,5
-90,58,-2052,-26,21,2
-83,46,-2044,-30,23,4
-87,61,-2051,-26,23,4
-79,55,-2051,-26,24,8
-84,57,-2049,-25,23,3
-85,58,-2034,-25,20,4
-85,55,-2048,-25,25,3
-82,50,-2034,-28,20,8
-76,54,-2049,-26,26,4
-76,60,-2039,-25,24,5
-83,61,-2045,-31,20,8
-80,58,-2032,-25,23,9
-84,58,-2043,-28,25,9
-75,54,-2035,-27,19,3
-85,58,-2048,-24,21,2
-77,55,-2044,-29,26,1
-80,56,-2047,-26,21,6
-81,61,-2035,-28,25,7
-79,53,-2039,-24,23,4
-78,54,-2045,-24,29,5
-80,59,-2042,-26,22,5
-72,59,-2044,-27,21,4
-82,57,-2034,-25,18,5
-80,50,-2041,-25,26,5
-80,65,-2033,-23,28,5
-79,56,-2042,-29,25,6
-72,61,-2043,-28,21,5
-85,57,-2034,-29,22,5
-78,59,-2035,-25,24,5
-81,64,-2039,-25,29,8
-81,53,-2038,-28,21,4
-85,55,-2054,-23,24,5
-86,53,-2044,-29,25,4
-78,63,-2039,-28,26,7
-81,63,-2050,-30,21,3
-82,61,-2036,-25,25,4
-80,60,-2048,-27,26,6
-77,65,-2052,-26,20,3
-80,45,-2042,-27,21,7
-85,62,-2038,-27,24,8
-82,55,-2049,-25,21,7
-75,52,-2048,-24,19,6
-82,56,-2035,-27,26,0
-88,51,-2046,-27,20,4
-82,54,-2047,-30,25,6
-80,52,-2046,-23,23,6
-80,50,-2048,-26,23,7
-85,62,-2042,-25,21,7
-90,58,-2044,-27,19,4
-84,56,-2042,-25,22,3
-71,60,-2048,-24,22,3
-82,55,-2040,-24,24,8
-81,60,-2041,-24,21,2
-87,60,-2046,-29,21,6
-74,49,-2040,-31,23,2
-78,58,-2032,-27,22,8
-84,54,-2047,-25,26,5
-72,50,-2050,-30,25,0
-87,58,-2037,-29,26,8
-82,59,-2051,-25,24,4
-81,55,-2047,-27,24,10
-82,58,-2047,-26,25,11
-86,64,-2036,-23,22,1
-77,56,-2052,-23,21,4
-73,53,-2046,-30,23,7
-88,61,-2033,-25,21,3
-86,54,-2037,-27,24,3
-84,52,-2035,-25,21,6
-82,55,-2038,-22,26,0
-84,59,-2031,-30,24,4
-84,55,-2046,-29,22,4
-85,62,-2044,-29,25,2
-86,53,-2028,-28,21,1
-75,59,-2048,-27,25,7
-85,63,-2041,-28,23,4
-82,50,-2045,-25,24,5
-80,50,-2042,-25,24,3
-83,58,-2037,-25,23,3
-80,65,-2036,-25,24,8
-86,59,-2044,-28,23,6
-80,57,-2051,-28,23,7
-74,56,-2051,-23,22,5
-81,52,-2039,-22,26,2
-83,53,-2050,-24,23,5
-81,56,-2035,-27,23,5
-82,57,-2042,-25,22,3
-84,62,-2044,-28,22,5
-76,53,-2038,-27,23,4
-82,63,-2038,-27,24,6
-86,53,-2036,-27,23,5
-84,55,-2038,-26,29,5
-77,55,-2042,-24,23,5
-83,56,-2032,-29,22,7
-83,60,-2045,-24,22,5
-87,55,-2045,-23,22,7
-82,57,-2032,-26,20,6
-76,56,-2037,-27,25,6
-85,55,-2052,-28,23,2
-76,61,-2045,-27,27,6
-81,52,-2039,-27,25,3
-79,63,-2039,-27,22,9
-87,63,-2032,-26,21,5
-83,55,-2044,-25,23,6
-85,60,-2042,-24,26,0
-85,63,-2044,-26,17,4
-80,54,-2031,-27,24,0
-75,57,-2049,-28,20,3
-83,55,-2052,-23,23,6
-83,55,-2039,-26,25,4
-80,51,-2037,-25,22,4
-82,55,-2045,-24,27,7
-87,56,-2053,-27,21,6
-81,59,-2051,-27,23,2
-83,58,-2044,-24,20,8
-77,52,-2039,-26,26,5
-80,58,-2025,-29,25,2
-76,61,-2036,-28,21,8
-78,58,-2038,-24,19,4
-84,66,-2037,-25,24,4
-84,61,-2049,-26,21,6
-80,57,-2047,-30,24,7
-81,65,-2050,-26,25,9
-85,56,-2043,-29,23,5
-84,60,-2038,-26,24,10
-75,56,-2046,-23,25,9
-82,49,-2047,-25,24,3
-86,53,-2041,-28,25,3
-86,57,-2045,-29,24,2
-71,52,-2043,-27,23,7
-82,56,-2045,-26,19,0
-86,60,-2040,-28,24,4
-87,46,-2044,-25,22,7
-76,57,-2041,-24,25,6
-84,61,-2048,-26,25,5
-81,54,-2036,-27,24,10
-80,53,-2044,-26,24,5
-80,57,-2036,-27,24,4
-85,58,-2050,-30,20,6
-83,55,-2042,-27,21,8
-79,64,-2035,-28,20,3
-84,55,-2052,-24,25,8
-77,54,-2050,-28,24,7
-82,52,-2037,-23,22,5
-80,54,-2031,-27,25,3
-80,57,-2039,-29,20,6
-78,54,-2045,-23,28,8
-78,53,-2051,-26,24,8
-80,56,-2048,-27,22,6
-78,63,-2039,-26,23,5
-77,59,-2051,-24,24,3
-78,65,-2040,-25,23,3
-82,54,-2062,-25,22,6
-71,56,-2040,-28,25,8
-84,59,-2037,-27,25,3
-73,53,-2049,-26,22,6
-75,61,-2044,-27,24,0
-80,56,-2057,-24,24,3
-79,56,-2051,-29,24,5
-84,63,-2046,-25,22,7
-80,51,-2036,-27,24,5
-82,57,-2044,-25,21,3
-86,53,-2035,-25,23,4
-83,59,-2039,-27,20,5
-81,64,-2045,-27,25,8
-79,51,-2044,-27,22,3
-86,61,-2060,-26,21,4
-75,60,-2040,-28,25,0
-81,54,-2034,-26,21,7
-83,62,-2041,-23,25,5
-73,54,-2045,-28,22,1
-86,56,-2046,-29,20,7
-81,57,-2048,-25,25,6
-76,59,-2048,-26,22,5
-88,55,-2039,-26,23,6
-87,54,-2048,-26,24,2
-77,53,-2041,-27,26,4
-85,55,-2048,-26,22,7
-82,58,-2043,-28,24,7
-81,61,-2045,-25,24,7
-69,62,-2048,-26,26,4
-81,55,-2037,-27,20,8
-84,57,-2041,-25,24,6
-77,54,-2038,-27,24,5
-80,53,-2045,-24,24,6
-87,60,-2039,-29,25,6
-79,53,-2038,-28,23,7
-80,53,-2048,-24,22,3
-74,53,-2044,-25,26,3
-79,46,-2046,-26,23,3
-83,55,-2044,-28,17,5
-79,54,-2040,-27,23,6
-76,64,-2043,-27,24,8
-87,58,-2040,-26,26,4
-73,59,-2032,-27,21,7
-78,52,-2056,-28,26,7
-82,61,-2049,-25,21,9
-80,62,-2049,-23,22,0
-77,54,-2038,-26,26,7
-85,59,-2046,-27,26,-1
-81,53,-2047,-25,20,7
-77,59,-2040,-25,23,4
-86,60,-2044,-27,22,6
-87,55,-2039,-26,24,4
-82,56,-2041,-28,25,6
-83,52,-2048,-28,24,4
-79,55,-2030,-25,23,2
-83,62,-2053,-28,23,8
-80,53,-2045,-29,22,4
-78,60,-2042,-23,26,5
-75,52,-2042,-30,25,4
-78,52,-2051,-26,20,2
-81,54,-2047,-26,20,2
-84,55,-2040,-23,25,5
-81,47,-2039,-23,23,6
-88,57,-2038,-25,21,6
-88,61,-2047,-29,27,6
-84,56,-2043,-25,27,5
-80,58,-2043,-30,26,6
-80,57,-2043,-26,23,2
-85,61,-2037,-28,23,8
-80,61,-2045,-25,24,5
-84,56,-2038,-24,24,-1
-83,59,-2044,-26,26,4
-78,54,-2037,-25,21,4
-72,61,-2046,-28,24,3
-80,63,-2038,-28,20,6
-89,48,-2035,-25,26,7
-83,60,-2059,-24,24,6
-84,45,-2057,-25,23,3
-80,56,-2043,-26,22,3
-82,61,-2048,-26,23,7
-84,51,-2054,-27,23,7
-86,53,-2036,-28,22,4
-79,54,-2030,-24,27,7
-87,56,-2045,-26,24,3
-84,59,-2040,-26,26,9
-85,55,-2038,-28,24,7
-86,59,-2037,-26,24,7
-93,58,-2043,-25,24,6
-78,56,-2054,-26,23,7
-77,55,-2036,-27,21,3
-74,59,-2044,-26,22,8
-80,52,-2041,-24,21,7
-84,52,-2047,-28,24,3
-83,60,-2044,-24,22,1
-84,54,-2046,-23,24,6
-83,54,-2042,-25,22,6
-77,54,-2041,-26,27,7
-82,49,-2031,-26,24,3
-77,54,-2042,-26,23,5
-83,54,-2042,-27,25,5
-87,53,-2039,-28,19,4
-78,61,-2040,-26,24,5
-88,56,-2042,-28,22,4
-81,56,-2035,-29,26,3
-81,62,-2042,-25,23,-1
-86,53,-2037,-24,18,7
-87,60,-2036,-29,24,2
-83,53,-2042,-26,24,6
-80,55,-2044,-29,22,7
-80,51,-2044,-26,24,5
-90,59,-2041,-27,22,2
-78,60,-2041,-29,23,8
-80,56,-2053,-24,22,9
-80,56,-2042,-28,22,3
-80,58,-2042,-26,24,7
-85,54,-2037,-30,24,6
-79,60,-2035,-26,18,7
-78,56,-2046,-26,23,8
-85,52,-2040,-23,25,4
-86,64,-2042,-24,23,8
-70,55,-2053,-27,25,7
-79,58,-2048,-25,20,10
-79,48,-2038,-25,23,1
-79,53,-2037,-26,18,3
-79,60,-2047,-29,20,9
-81,57,-2038,-24,22,6
-82,59,-2049,-28,20,3
-81,53,-2039,-23,19,7
-83,53,-2049,-26,26,5
-79,57,-2042,-28,23,5
-88,56,-2054,-29,22,7
-81,66,-2036,-24,25,5
-83,55,-2048,-26,27,4
-89,50,-2032,-28,26,6
-78,57,-2035,-26,26,5
-79,56,-2041,-25,22,8
-87,58,-2034,-26,25,2
-78,57,-2038,-27,22,6
-87,56,-2043,-27,24,4
-83,58,-2038,-29,23,11
-79,61,-2048,-24,23,7
-81,54,-2051,-28,25,6
-80,47,-2036,-26,24,7
-78,49,-2040,-27,22,5
-82,61,-2036,-29,21,9
-79,56,-2045,-27,23,5
-82,58,-2036,-26,27,6
-84,59,-2051,-25,21,3
-79,52,-2048,-29,26,5
-77,57,-2043,-24,24,6
-78,60,-2044,-29,27,9
-78,58,-2050,-27,24,7
-78,54,-2028,-24,27,4
-77,49,-2046,-30,22,6
-81,55,-2040,-27,22,3
-87,58,-2035,-26,26,5
-74,59,-2040,-28,22,6
-79,53,-2054,-28,20,4
-80,53,-2035,-25,25,5
-77,53,-2047,-26,22,5
-79,60,-2046,-27,24,4
-77,56,-2036,-25,24,4
-84,62,-2044,-24,25,11
-83,61,-2033,-29,25,2
-74,56,-2055,-26,26,4
-73,55,-2041,-28,22,3
-75,49,-2041,-26,20,8
-80,53,-2042,-28,25,7
-81,55,-2043,-23,22,3
-78,53,-2038,-26,24,4
-77,45,-2034,-26,24,5
-81,61,-2041,-29,22,2
-84,55,-2054,-27,26,3
-80,60,-2040,-22,22,2
-80,46,-2045,-28,25,4
-81,58,-2046,-28,23,10
-82,59,-2031,-29,27,6
-87,56,-2029,-29,22,7
-83,56,-2033,-29,26,2
-81,58,-2039,-26,25,6
-76,57,-2038,-29,22,4
-77,61,-2040,-28,22,6
-82,45,-2042,-27,25,5
-81,58,-2033,-29,18,8
-75,59,-2047,-30,22,5
-80,61,-2044,-26,22,6
-79,53,-2048,-25,24,4
-83,55,-2026,-28,19,6
-79,55,-2038,-27,26,7
-84,53,-2045,-26,22,4
-87,65,-2046,-24,24,5
-83,52,-2046,-30,22,5
-76,63,-2048,-28,20,5
-94,53,-2046,-26,24,4
-76,62,-2050,-29,21,5
-84,58,-2053,-27,26,5
-83,58,-2032,-27,23,7
-86,55,-2037,-28,20,7
-84,49,-2041,-26,23,4
-87,55,-2053,-26,23,3
-79,61,-2036,-27,24,3
-82,53,-2039,-25,25,8
-89,59,-2052,-31,24,5
-85,57,-2036,-28,24,10
-84,56,-2040,-26,23,7
-82,55,-2037,-25,22,1
-78,62,-2034,-26,22,5
-75,57,-2030,-25,22,6
-83,53,-2042,-29,22,4
-80,68,-2040,-27,25,7
-80,54,-2055,-30,24,6
-83,52,-2035,-24,26,2
-81,59,-2035,-28,25,7
-77,59,-2033,-26,25,11
-84,62,-2050,-26,26,5
-81,54,-2049,-27,24,2
-82,59,-2037,-28,22,10
-77,65,-2038,-26,21,6
-81,60,-2031,-25,22,0
-81,56,-2038,-28,20,5
-86,57,-2045,-26,25,3
-78,53,-2041,-27,27,7
-76,56,-2041,-25,23,4
-78,58,-2040,-28,25,6
-81,62,-2039,-25,22,7
-81,60,-2041,-24,21,6
-84,56,-2032,-25,23,4
-76,52,-2033,-23,24,12
-87,54,-2037,-23,23,2
-80,51,-2025,-28,20,5
-86,50,-2045,-26,19,5
-85,55,-2049,-24,24,7
-80,59,-2044,-30,25,3
-84,51,-2044,-28,22,5
-84,50,-2051,-24,28,3
-79,60,-2042,-29,22,1
-82,56,-2030,-26,19,6
-79,56,-2041,-27,25,8
-78,61,-2046,-24,22,5
-81,58,-2038,-28,22,7
-81,59,-2043,-28,23,5
-84,64,-2031,-22,24,3
-87,54,-2041,-25,19,2
-77,51,-2052,-31,24,7
-81,56,-2032,-26,24,4
-79,61,-2040,-26,20,4
-72,49,-2047,-24,25,3
-77,57,-2045,-22,20,6
-82,55,-2042,-31,22,7
-78,58,-2042,-29,26,6
-76,56,-2049,-25,24,6
-84,56,-2046,-26,24,8
-76,56,-2035,-24,26,5
-81,59,-2039,-27,21,3
-73,50,-2056,-23,22,2
-82,54,-2041,-25,25,6
-77,53,-2043,-22,23,6
-81,48,-2049,-25,22,4
-87,58,-2040,-24,24,7
-79,50,-2040,-26,25,4
-83,62,-2049,-27,25,2
-78,58,-2050,-29,24,5
-76,49,-2050,-26,24,5
-76,59,-2038,-23,24,4
-83,48,-2047,-22,23,6
-76,53,-2036,-26,22,8
-85,48,-2044,-28,26,1
-82,55,-2037,-27,27,1
-82,58,-2047,-22,22,7
-79,58,-2044,-23,21,7
-81,48,-2040,-25,20,7
-77,56,-2048,-27,22,8
-83,61,-2052,-25,19,3
-80,47,-2039,-28,23,3
-82,59,-2044,-30,21,4
-77,52,-2035,-25,22,6
-84,58,-2037,-23,23,9
-78,52,-2044,-27,21,4
-90,57,-2045,-23,19,4
-83,57,-2057,-26,24,3
-76,62,-2052,-29,21,5
-77,64,-2029,-26,23,7
-81,55,-2048,-27,21,6
-80,51,-2033,-28,23,4
-80,51,-2038,-29,23,6
-80,60,-2044,-28,24,5
-82,48,-2041,-19,28,2
-75,57,-2043,-28,21,6
-76,56,-2033,-25,24,5
-79,61,-2025,-24,21,5
-70,54,-2047,-28,25,8
-76,57,-2035,-25,23,7
-77,58,-2026,-25,22,5
-79,58,-2041,-26,23,3
-86,57,-2041,-26,24,4
-88,51,-2044,-25,22,4
-81,55,-2037,-28,24,6
-85,50,-2045,-26,23,4
-83,56,-2036,-27,21,5
-83,57,-2047,-25,29,6
-83,54,-2038,-28,23,4
-79,57,-2045,-23,22,6
-74,55,-2052,-24,23,5
-85,66,-2034,-26,26,5
-80,58,-2041,-27,24,6
-79,56,-2048,-23,23,4
-83,63,-2039,-29,21,7
-76,58,-2053,-27,23,1
-90,64,-2046,-25,26,5
-77,61,-2041,-23,25,7
-83,63,-2048,-28,22,7
-88,52,-2049,-25,19,4
-86,58,-2043,-25,23,4
-79,62,-2031,-30,22,2
-80,58,-2040,-28,21,1
-83,57,-2031,-31,25,4
-82,58,-2055,-27,22,6
-75,56,-2042,-23,23,9
-73,56,-2036,-25,28,4
-78,53,-2037,-25,21,5
-81,59,-2035,-24,22,2
-77,57,-2048,-26,23,11
-86,56,-2044,-24,19,9
-83,57,-2045,-22,24,2
-85,57,-2042,-28,24,5
-91,57,-2054,-26,21,5
-79,55,-2055,-27,23,3
-84,55,-2047,-26,25,7
-82,56,-2044,-25,20,8
-83,52,-2043,-27,21,3
-88,52,-2043,-27,21,5
-76,52,-2044,-25,25,11
-87,52,-2042,-26,23,8
-83,57,-2036,-30,25,5
-88,56,-2038,-26,24,3
-83,69,-2047,-27,23,3
-80,57,-2044,-27,22,5
-78,59,-2051,-24,23,7
-84,56,-2036,-26,24,8
-81,46,-2046,-21,23,5
-80,53,-2045,-26,25,1
-81,51,-2051,-27,22,5
-88,62,-2040,-23,23,7
-82,51,-2048,-24,24,4
-84,50,-2039,-27,24,7
-82,61,-2035,-29,22,5
-80,62,-2029,-27,25,5
-85,53,-2043,-27,24,8
-88,51,-2040,-28,24,5
-79,64,-2043,-27,22,7
-86,63,-2039,-24,23,2
-84,51,-2035,-26,24,6
-71,60,-2039,-27,21,3
-80,56,-2054,-30,24,7
-82,49,-2040,-25,22,7
-79,53,-2056,-26,22,5
-82,54,-2045,-27,26,8
-80,60,-2049,-29,23,6
-80,58,-2033,-25,24,6
-83,61,-2034,-28,26,6
-79,56,-2045,-26,26,5
-82,63,-2037,-25,21,8
-90,54,-2035,-28,23,5
-80,55,-2043,-22,20,4
-84,53,-2050,-30,22,3
-81,57,-2038,-24,22,8
-74,58,-2052,-29,23,4
-79,49,-2050,-29,21,2
-86,55,-2032,-24,23,1
-80,61,-2045,-26,24,2
-80,58,-2048,-25,22,6
-76,59,-2046,-23,25,6
-79,52,-2032,-24,22,6
-80,58,-2037,-27,22,5
-74,55,-2031,-24,25,5
-78,56,-2039,-28,26,5
-77,57,-2043,-27,22,6
-77,61,-2037,-27,21,5
-84,60,-2044,-27,24,7
-92,52,-2041,-29,25,7
-84,52,-2039,-25,21,9
-79,62,-2052,-24,23,4
-81,59,-2044,-27,23,6
-85,60,-2037,-24,26,5
-83,54,-2025,-30,19,8
-78,59,-2044,-28,20,6
-78,57,-2040,-24,21,9
-86,49,-2042,-28,22,6
-79,50,-2041,-24,18,3
-82,51,-2041,-24,21,7
-82,55,-2033,-28,26,6
-81,57,-2048,-27,25,4
-82,53,-2043,-26,23,5
-83,54,-2047,-25,23,6
-86,58,-2045,-26,25,5
-85,49,-2052,-23,26,4
-84,48,-2043,-26,26,5
-71,58,-2039,-26,20,1
-87,55,-2037,-24,21,7
-79,58,-2046,-23,20,-1
-82,60,-2046,-31,23,5
-80,55,-2053,-23,23,1
-81,53,-2038,-26,25,8
-84,58,-2031,-27,23,5
-83,56,-2044,-25,22,4
-75,52,-2049,-23,26,7
-85,58,-2039,-29,22,6
-88,52,-2060,-25,23,8
-80,51,-2037,-28,22,0
-83,60,-2037,-24,26,5
-86,60,-2041,-25,24,7
-87,61,-2033,-31,19,5
-83,52,-2038,-27,22,7
-81,64,-2036,-31,23,8
-78,67,-2036,-25,24,1
-82,57,-2048,-26,28,5
-88,51,-2042,-23,22,2
-80,51,-2052,-27,23,6
-83,59,-2036,-25,27,2
-84,53,-2043,-30,28,6
-84,58,-2047,-26,24,5
-75,51,-2058,-26,23,2
-79,54,-2047,-29,21,3
-85,55,-2039,-20,23,4
-83,57,-2047,-25,25,-1
-83,64,-2048,-23,22,5
-85,60,-2049,-26,20,7
-83,58,-2028,-25,21,7
-81,53,-2039,-25,20,1
-81,56,-2034,-24,25,5
-83,55,-2030,-27,22,4
-76,51,-2032,-31,26,6
-76,55,-2045,-27,22,2
-82,52,-2039,-29,24,4
-81,55,-2051,-25,22,4
-76,56,-2045,-26,26,6
-87,51,-2042,-24,23,6
-79,53,-2049,-26,24,3
-84,61,-2036,-25,23,3
-80,56,-2035,-25,27,3
-85,55,-2051,-29,25,4
-85,62,-2046,-26,23,1
-92,46,-2044,-28,24,6
-87,59,-2042,-29,23,7
-83,56,-2032,-25,22,6
-87,59,-2050,-24,26,1
-82,56,-2041,-26,24,7
-81,51,-2054,-27,23,7
-83,60,-2043,-28,24,2
-86,60,-2042,-25,27,4
-82,61,-2038,-28,24,5
-76,56,-2039,-24,23,6
-78,63,-2047,-26,20,2
-84,55,-2039,-26,24,6
-87,62,-2051,-24,23,5
-78,59,-2035,-28,24,5
-84,54,-2036,-28,22,0
-85,55,-2051,-26,21,8
-81,51,-2031,-30,24,4
-77,57,-2039,-22,23,8
-83,59,-2047,-28,26,3
-82,59,-2033,-30,26,11
-81,52,-2048,-29,23,9
-82,61,-2037,-24,24,5
-79,70,-2031,-26,22,4
-88,61,-2033,-24,22,5
-80,56,-2041,-29,28,6
-81,55,-2049,-27,23,1
-90,54,-2042,-25,19,3
-82,53,-2050,-28,25,6
-86,49,-2047,-25,26,8
-85,58,-2034,-28,22,6
-90,64,-2048,-27,23,3
-83,58,-2049,-24,23,6
-77,65,-2039,-30,21,6
-75,50,-2050,-27,26,3
-77,53,-2033,-27,21,8
-82,58,-2046,-24,25,5
-86,52,-2040,-28,23,10
-79,59,-2046,-25,20,4
-88,60,-2050,-28,27,6
-80,59,-2041,-27,21,6
-86,57,-2034,-26,22,-2
-80,50,-2049,-24,20,3
-76,59,-2036,-31,25,8
-78,51,-2047,-27,23,4
-86,58,-2046,-27,21,6
-79,59,-2040,-26,24,2
-83,62,-2033,-24,22,8
-87,50,-2043,-23,25,4
-83,55,-2044,-27,25,5
-85,56,-2043,-27,20,8
-81,64,-2039,-27,22,4
-79,56,-2038,-25,21,6
-79,57,-2040,-26,23,7
-81,60,-2047,-25,23,6
-80,53,-2041,-27,19,8
-78,52,-2042,-27,20,5
-82,60,-2051,-26,26,7
-87,62,-2051,-27,21,5
-77,59,-2033,-29,22,3
-83,57,-2038,-24,23,8
-81,58,-2036,-27,25,7
-77,58,-2040,-25,20,4
-88,56,-2047,-23,24,4
-81,58,-2054,-27,25,8
-81,56,-2034,-23,23,1
-88,50,-2039,-25,24,7
-82,60,-2042,-26,22,5
-81,54,-2041,-25,25,2
-86,55,-2039,-28,24,5
-87,58,-2052,-28,21,9
-88,47,-2029,-27,25,8
-82,56,-2031,-24,21,7
-79,55,-2045,-30,20,1
-87,58,-2027,-27,21,6
-81,50,-2046,-27,22,6
-88,49,-2044,-28,25,10
-76,60,-2043,-25,25,7
-88,54,-2042,-28,24,2
-85,53,-2056,-24,24,4
-80,54,-2046,-25,23,8
-84,62,-2045,-26,21,7
-81,55,-2039,-24,25,4
-93,52,-2039,-28,24,4
-80,58,-2048,-23,26,4
-81,62,-2046,-28,24,2
-74,56,-2025,-32,23,6
-86,52,-2046,-28,26,2
-85,56,-2035,-25,20,5
-80,55,-2043,-24,20,3
-88,64,-2037,-26,25,7
-77,48,-2042,-26,27,5
-78,54,-2038,-27,22,3
-81,53,-2049,-25,22,9
-84,55,-2049,-26,24,8
-93,54,-2048,-29,25,6
-78,48,-2039,-24,23,5
-81,59,-2031,-22,27,6
-71,60,-2040,-26,22,7
-84,62,-2035,-26,28,4
-86,53,-2037,-30,25,7
-77,55,-2045,-24,21,8
-83,49,-2039,-24,23,6
-83,60,-2049,-22,23,4
-79,60,-2049,-28,25,4
-82,58,-2029,-27,21,7
-82,55,-2032,-23,18,5
-88,65,-2043,-28,21,6
-81,62,-2030,-26,23,1
-78,60,-2036,-27,25,3
-79,58,-2046,-25,23,4
-78,55,-2044,-28,23,7
-86,58,-2041,-31,25,4
-78,52,-2044,-26,24,8
-87,62,-2043,-28,22,4
-80,65,-2056,-25,25,10
-79,55,-2038,-28,22,6
-79,52,-2038,-25,22,4
-81,54,-2043,-25,22,7
-80,53,-2046,-28,25,3
-89,54,-2043,-26,22,6
-72,49,-2047,-28,24,6
-87,56,-2032,-26,23,8
-83,51,-2046,-28,25,6
-84,56,-2025,-27,26,6
-84,56,-2029,-30,24,6
-80,52,-2045,-24,25,3
-76,56,-2040,-30,26,4
-77,59,-2039,-27,25,4
-88,58,-2042,-22,24,5
-89,54,-2038,-25,21,2
-84,57,-2041,-29,23,6
-83,59,-2035,-30,22,6
-86,58,-2031,-24,25,4
-84,54,-2042,-28,24,7
-83,56,-2044,-25,24,2
-82,61,-2042,-27,26,6
-80,59,-2037,-25,22,7
-83,61,-2038,-25,25,4
-68,61,-2034,-26,24,4
-84,58,-2032,-25,21,4
-84,56,-2048,-28,25,7
-86,54,-2034,-25,26,6
-80,54,-2034,-25,20,6
-77,55,-2039,-25,23,5
-87,62,-2038,-27,27,1
-80,57,-2047,-24,22,7
-78,50,-2043,-25,19,5
-72,53,-2053,-26,27,9
-82,54,-2039,-27,22,7
-85,53,-2053,-26,24,1
-79,61,-2053,-25,23,4
-78,51,-2043,-23,23,0
-80,58,-2049,-29,20,5
-80,59,-2048,-25,21,6
-87,52,-2026,-26,24,4
-77,52,-2032,-27,22,5
-78,55,-2050,-25,25,5
-80,54,-2037,-26,24,7
-81,57,-2044,-28,23,6
-81,54,-2038,-31,23,4
-80,54,-2032,-28,20,5
-86,64,-2038,-26,23,4
-80,51,-2048,-24,23,4
-80,61,-2048,-25,23,6
-85,60,-2041,-28,21,5
-77,62,-2036,-26,25,9
-86,55,-2037,-28,20,6
-82,58,-2038,-29,25,7
-80,60,-2046,-25,24,3
-77,62,-2043,-26,23,9
-76,57,-2041,-23,20,8
-75,57,-2028,-26,24,7
-83,57,-2047,-28,21,1
-80,59,-2041,-25,19,6
-81,54,-2037,-23,26,5
-75,51,-2034,-28,21,8
-78,60,-2044,-29,22,7
-80,60,-2033,-25,27,7
-81,47,-2038,-27,22,7
-83,50,-2044,-27,22,5
-76,56,-2042,-24,20,6
-93,59,-2040,-26,20,9
-84,60,-2037,-23,22,-1
-83,54,-2039,-27,21,5
-77,58,-2039,-30,26,4
-81,52,-2034,-27,28,1
-83,53,-2041,-26,21,5
-80,61,-2043,-25,25,5
-84,50,-2056,-27,23,10
-82,58,-2039,-24,23,6
-84,61,-2039,-25,22,6
-94,52,-2052,-23,23,6
-92,55,-2043,-27,24,11
-77,52,-2044,-27,23,6
-84,56,-2047,-25,21,5
-83,49,-2042,-25,22,5
-82,56,-2053,-27,23,5
-77,53,-2047,-28,24,4
-87,67,-2040,-28,24,4
-83,58,-2034,-26,20,2
-80,57,-2037,-25,24,8
-81,50,-2038,-24,23,4
-79,64,-2046,-24,22,2
-90,52,-2046,-24,25,9
-85,51,-2042,-21,21,4
-86,66,-2052,-27,24,6
-86,48,-2043,-28,22,4
-77,56,-2033,-25,24,9
-95,61,-2039,-25,23,4
-87,57,-2037,-23,23,3
-83,50,-2058,-30,23,8
-81,59,-2044,-27,23,7
-78,56,-2037,-25,19,4
-86,57,-2042,-27,21,7
-84,50,-2055,-25,20,6
-87,56,-2049,-26,24,8
-80,55,-2045,-26,21,2
-80,59,-2049,-26,23,3
-80,55,-2034,-25,22,1
-87,55,-2036,-27,26,7
-80,53,-2044,-26,20,3
-84,53,-2051,-23,24,6
-79,56,-2063,-26,25,5
-80,61,-2046,-28,23,2
-80,55,-2035,-26,24,5
-89,61,-2045,-29,22,5
-85,56,-2047,-28,22,5
-81,56,-2037,-28,21,10
-83,55,-2032,-29,27,5
-90,58,-2037,-27,24,7
-79,57,-2031,-28,22,3
-79,58,-2051,-27,27,0
-78,59,-2045,-28,27,3
-85,55,-2028,-23,22,4
-83,58,-2045,-25,23,6
-78,54,-2046,-25,25,8
-86,61,-2045,-25,23,3
-74,65,-2035,-22,24,3
-79,54,-2043,-25,24,6
-87,53,-2036,-25,21,8
-78,57,-2035,-28,27,4
-76,62,-2045,-30,23,8
-73,55,-2041,-23,24,7
-84,64,-2043,-26,24,6
-84,61,-2041,-24,24,3
-76,54,-2039,-25,26,1
-83,64,-2039,-29,22,-1
-78,55,-2036,-22,22,6
-81,60,-2044,-29,26,5
-90,58,-2048,-25,19,2
-84,50,-2042,-29,23,9
-86,60,-2040,-28,24,3
-82,53,-2041,-26,25,4
-85,56,-2040,-28,25,2
-71,57,-2041,-26,23,4
-79,53,-2038,-29,19,9
-79,50,-2040,-27,26,8
-81,56,-2036,-24,22,5
-89,56,-2047,-27,26,5
-82,53,-2045,-26,24,5
-88,57,-2042,-26,28,3
-79,54,-2046,-26,25,4
-84,58,-2037,-27,19,8
-81,62,-2048,-26,21,5
-80,61,-2035,-28,22,6
-76,57,-2045,-24,26,5
-82,52,-2037,-26,25,7
-84,50,-2039,-23,22,7
-81,56,-2038,-28,20,7
-83,65,-2043,-27,26,3
-78,60,-2038,-24,23,7
-82,62,-2039,-26,28,9
-79,53,-2051,-25,24,7
-79,59,-2060,-27,19,5
-81,60,-2044,-28,24,8
-73,56,-2054,-27,25,5
-85,56,-2047,-27,20,3
-89,58,-2049,-30,22,1
-81,50,-2044,-26,28,6
-84,62,-2035,-27,22,9
-79,61,-2043,-22,29,3
-75,56,-2048,-24,22,5
-84,52,-2049,-25,24,5
-84,59,-2042,-24,26,7
-85,61,-2033,-24,22,2
-89,58,-2043,-24,23,5
-80,67,-2041,-27,23,5
-84,54,-2053,-26,26,6
-78,49,-2045,-26,25,2
-80,55,-2040,-26,24,8
-77,53,-2046,-25,23,2
-85,50,-2042,-28,22,5
-82,53,-2045,-24,21,6
-87,62,-2049,-26,22,2
-81,46,-2046,-25,25,4
-77,62,-2044,-29,24,3
-86,51,-2037,-27,21,2
-78,45,-2038,-27,25,3
-82,52,-2039,-28,22,3
-74,53,-2040,-25,24,2
-79,57,-2039,-28,23,6
-81,60,-2044,-27,24,6
-85,54,-2043,-27,24,6
-82,59,-2026,-26,24,7
-79,56,-2048,-28,22,1
-77,55,-2041,-23,23,7
-81,44,-2034,-28,23,1
-78,56,-2038,-27,28,5
-89,63,-2032,-25,24,5
-82,48,-2042,-25,22,3
-79,65,-2041,-28,23,6
-84,53,-2042,-28,24,3
-78,47,-2042,-27,20,6
-86,60,-2045,-28,20,2
-85,63,-2054,-24,22,6
-82,55,-2033,-24,21,6
-85,54,-2028,-30,20,5
-81,54,-2044,-28,22,6
-83,47,-2046,-22,23,9
-77,53,-2047,-30,26,6
-83,57,-2043,-28,24,6
-82,46,-2039,-28,20,4
-83,51,-2040,-26,20,4
-79,59,-2042,-28,20,2
-82,56,-2045,-31,21,3
-79,60,-2030,-27,25,6
-91,59,-2038,-26,27,3
-80,55,-2032,-26,21,5
-79,57,-2036,-26,22,7
-74,61,-2037,-28,20,3
-81,51,-2048,-24,26,4
-82,52,-2058,-25,23,7
-85,57,-2045,-25,25,7
-83,55,-2039,-28,25,3
-83,56,-2036,-22,22,6
-78,57,-2046,-30,27,8
-81,60,-2044,-25,27,4
-82,52,-2033,-25,21,4
-79,53,-2037,-26,23,5
-77,61,-2040,-25,22,4
-83,64,-2041,-23,25,4
-81,58,-2036,-30,21,7
-83,58,-2054,-25,22,2
-83,59,-2043,-27,29,2
-81,59,-2040,-25,25,6
-78,55,-2047,-25,27,8
-80,58,-2030,-28,25,9
-82,58,-2042,-25,27,4
-81,51,-2049,-26,20,8
-75,52,-2047,-25,23,11
-81,49,-2049,-27,25,5
-81,59,-2053,-22,24,7
-80,53,-2046,-25,22,7
-82,60,-2044,-27,25,5
-84,61,-2039,-25,22,7
-78,61,-2043,-27,20,4
-80,57,-2042,-25,21,5
-76,56,-2038,-25,21,7
-78,60,-2036,-26,23,2
-81,48,-2032,-25,29,4
-89,63,-2039,-25,24,3
-92,62,-2044,-30,22,5
-77,50,-2034,-28,26,2
-81,52,-2047,-25,24,1
-80,61,-2042,-27,24,3
-84,64,-2034,-30,25,5
-82,53,-2047,-26,22,5
-74,60,-2038,-30,26,4
-84,56,-2041,-27,25,5
-74,54,-2042,-27,25,5
-84,61,-2051,-26,23,12
-82,58,-2042,-27,23,6
-84,59,-2046,-28,26,1
-74,54,-2037,-24,24,8
-82,53,-2043,-27,25,4
-87,45,-2061,-25,25,4
-83,55,-2033,-28,21,3
-83,61,-2048,-29,22,2
-79,64,-2036,-25,20,4
-80,62,-2051,-30,25,3
-77,52,-2048,-30,24,5
-78,49,-2057,-28,23,4
-79,59,-2051,-34,25,4
-84,54,-2034,-27,23,6
-84,58,-2039,-25,24,7
-85,61,-2050,-27,23,6
-77,52,-2039,-27,23,3
-79,61,-2043,-25,20,0
-75,62,-2042,-24,21,5
-78,62,-2047,-23,24,4
-81,53,-2055,-25,24,7
-82,51,-2029,-25,22,5
-93,60,-2047,-29,22,6
-83,49,-2029,-26,22,3
-81,56,-2032,-28,24,6
-77,58,-2040,-33,22,8
-80,49,-2039,-29,22,5
-76,55,-2043,-23,26,6
-81,61,-2035,-31,24,3
-86,54,-2039,-27,26,8
-84,54,-2039,-28,25,9
-74,51,-2037,-27,22,6
-82,54,-2040,-27,24,4
-74,52,-2051,-24,23,2
-82,58,-2044,-26,22,6
-80,60,-2038,-24,20,3
-73,56,-2033,-25,23,5
-82,53,-2034,-26,25,6
-87,56,-2057,-25,19,3
-84,54,-2041,-29,23,2
-79,54,-2031,-25,21,8
-78,62,-2048,-27,24,2
-76,53,-2030,-28,22,2
-82,54,-2043,-24,19,5
-87,52,-2044,-22,22,8
-89,56,-2040,-28,19,7
-82,60,-2041,-27,23,4
-78,66,-2043,-22,24,10
-82,56,-2050,-29,25,4
-81,57,-2041,-26,21,8
-77,54,-2040,-29,25,7
-83,56,-2040,-31,24,9
-80,56,-2047,-24,24,8
-81,53,-2053,-26,28,5
-83,55,-2050,-27,22,7
-84,61,-2053,-27,25,6
-76,52,-2036,-28,18,6
-81,54,-2052,-25,23,3
-82,63,-2040,-26,21,7
-76,54,-2046,-28,22,7
-77,53,-2050,-26,20,3
-77,53,-2036,-25,19,3
-85,56,-2048,-27,22,7
-82,55,-2048,-29,23,2
-77,54,-2041,-29,22,7
-83,53,-2034,-23,23,3
-84,64,-2039,-26,20,2
-83,54,-2039,-28,21,6
-83,57,-2051,-25,20,5
-84,64,-2041,-30,24,4
-85,59,-2034,-24,21,3
-74,53,-2052,-27,26,6
-78,65,-2039,-23,22,5
-86,57,-2056,-25,25,8
-89,54,-2052,-28,24,5
-83,49,-2049,-24,24,9
-84,50,-2044,-28,23,5
-85,49,-2035,-29,23,3
-80,52,-2043,-27,25,6
-78,54,-2046,-26,24,3
-87,62,-2033,-25,21,6
-82,55,-2048,-29,24,4
-79,57,-2039,-26,22,5
-87,54,-2045,-26,25,3
-77,61,-2044,-27,23,9
-84,55,-2037,-21,25,8
-85,54,-2046,-28,19,4
-87,53,-2042,-28,26,2
-83,56,-2034,-26,23,3
-80,59,-2040,-28,22,4
-82,58,-2048,-29,24,5
-74,59,-2040,-26,25,8
-78,61,-2040,-29,24,6
-81,61,-2039,-27,25,2
-83,50,-2032,-24,24,6
-83,54,-2045,-25,24,2
-78,57,-2029,-26,24,4
-81,59,-2051,-25,24,5
-85,55,-2044,-28,22,4
-83,59,-2043,-26,24,3
-81,49,-2055,-24,23,5
-80,60,-2040,-22,20,7
-80,61,-2046,-23,23,3
-81,65,-2043,-28,20,5
-79,56,-2046,-25,23,4
-75,58,-2046,-25,23,6
-80,55,-2045,-27,25,7
-77,59,-2045,-27,25,3
-74,58,-2045,-24,25,6
-86,58,-2028,-27,26,7
-78,62,-2051,-27,21,7
-80,60,-2042,-26,23,7
-81,61,-2047,-26,24,4
-84,47,-2042,-27,22,10
-77,59,-2041,-26,24,8
-80,52,-2035,-27,20,6
-80,60,-2043,-28,22,5
-91,56,-2035,-25,21,2
-79,64,-2045,-27,19,5
-77,61,-2044,-26,23,8
-80,50,-2028,-25,24,6
-84,55,-2051,-27,23,9
-81,52,-2048,-22,26,9
-85,58,-2041,-25,19,7
-77,56,-2029,-23,24,8
-82,61,-2045,-27,25,5
-79,56,-2034,-28,24,8
-79,52,-2045,-28,22,7
-85,53,-2040,-26,25,4
-82,51,-2042,-27,23,7
-82,63,-2046,-28,21,4
-86,63,-2037,-27,25,3
-84,58,-2047,-25,24,2
-78,50,-2029,-24,22,6
-80,58,-2030,-23,20,4
-75,48,-2044,-27,20,10
-80,59,-2041,-27,25,5
-82,56,-2046,-22,20,4
-85,50,-2037,-25,25,7
-80,62,-2033,-27,23,6
-75,57,-2047,-24,25,5
-86,64,-2033,-30,25,1
-79,52,-2035,-29,26,6
-82,55,-2038,-28,21,6
-73,54,-2042,-29,25,6
-88,55,-2048,-29,22,10
-79,56,-2053,-25,27,0
-89,55,-2046,-28,23,2
-85,48,-2037,-26,22,3
-82,59,-2032,-25,22,4
-81,58,-2038,-25,22,6
-85,57,-2040,-28,22,3
-78,62,-2043,-26,25,4
-83,51,-2043,-26,20,3
-73,55,-2047,-26,22,7
-74,52,-2046,-26,23,5
-84,56,-2028,-27,27,7
-78,53,-2051,-28,24,6
-88,58,-2052,-26,21,6
-84,56,-2039,-27,26,6
-83,62,-2057,-28,24,4
-78,63,-2037,-24,23,6
-79,61,-2042,-28,23,5
-80,58,-2045,-28,24,4
-83,65,-2037,-26,21,7
-78,57,-2044,-25,22,6
-83,55,-2035,-25,24,7
-77,53,-2050,-27,21,7
-81,53,-2049,-27,22,6
-85,62,-2050,-25,26,5
-78,51,-2031,-27,22,5
-79,54,-2046,-31,23,5
-87,58,-2049,-29,22,5
-84,52,-2041,-25,23,7
-82,60,-2041,-28,22,7
-84,56,-2045,-27,20,6
-75,58,-2043,-25,24,5
-73,54,-2038,-24,25,8
-82,60,-2030,-27,23,4
-90,53,-2048,-24,25,7
-81,49,-2039,-25,23,5
-81,53,-2056,-27,26,6
-82,55,-2038,-26,22,7
-82,56,-2042,-26,22,5
-77,52,-2029,-26,27,6
-84,58,-2044,-30,20,10
-83,53,-2041,-26,21,2
-81,67,-2035,-25,20,8
-81,45,-2046,-27,25,5
-84,52,-2045,-27,25,8
-75,64,-2048,-26,24,7
-74,56,-2056,-27,22,6
-86,55,-2041,-27,22,6
-82,61,-2039,-24,23,3
-83,66,-2051,-28,27,3
-74,48,-2037,-24,22,4
-79,56,-2040,-25,21,5
-77,47,-2047,-28,26,4
-81,62,-2037,-28,21,5
-75,55,-2050,-24,23,5
-81,65,-2045,-26,27,10
-83,61,-2050,-27,23,5
-80,62,-2040,-28,28,7
-83,54,-2045,-29,23,4
-78,49,-2055,-27,24,4
-84,59,-2048,-26,21,8
-79,60,-2036,-28,24,2
-77,62,-2044,-25,19,6
-83,63,-2039,-29,23,4
-81,53,-2043,-25,21,6
-80,50,-2038,-27,22,4
-75,56,-2049,-24,21,6
-79,56,-2041,-27,21,7
-80,61,-2034,-25,25,5
-85,56,-2040,-26,19,5
-85,63,-2049,-24,22,5
-85,62,-2042,-24,23,7
-76,57,-2054,-28,17,5
-79,51,-2031,-23,25,5
-82,60,-2047,-23,25,6
-73,51,-2039,-26,26,4
-81,52,-2048,-25,23,6
-71,56,-2037,-26,18,0
-76,55,-2039,-26,24,7
-84,54,-2042,-29,26,3
-82,62,-2038,-25,22,6
-75,60,-2043,-27,23,6
-80,52,-2044,-26,26,4
-72,59,-2042,-25,22,4
-86,59,-2045,-26,26,6
-84,54,-2037,-23,24,5
-81,54,-2042,-28,18,5
-79,56,-2051,-27,22,3
-79,55,-2044,-29,25,4
-79,63,-2037,-25,22,8
-78,61,-2035,-28,23,6
-84,58,-2034,-27,22,6
-78,55,-2041,-28,21,6
-86,55,-2044,-25,26,6
-74,63,-2032,-26,24,6
-83,58,-2038,-29,21,6
-84,53,-2034,-26,22,8
-86,54,-2046,-28,21,6
-71,45,-2036,-26,23,6
-81,53,-2054,-27,23,4
-83,56,-2037,-24,24,6
-81,51,-2043,-25,24,6
-86,53,-2041,-26,25,4
-80,53,-2031,-27,25,2
-76,54,-2041,-28,26,5
-84,65,-2041,-24,25,5
-72,58,-2039,-28,19,2
-82,53,-2046,-28,23,9
-81,62,-2048,-31,21,8
-79,56,-2042,-26,24,10
-78,53,-2044,-28,22,11
-75,54,-2044,-25,23,2
-82,54,-2045,-23,23,5
-87,65,-2040,-25,24,4
-84,54,-2046,-26,22,4
-80,59,-2039,-26,22,4
-83,51,-2045,-25,26,8
-83,63,-2040,-27,25,7
-75,61,-2051,-23,23,8
-82,65,-2039,-26,22,8
-81,61,-2040,-25,26,5
-85,54,-2040,-25,21,5
-80,50,-2039,-28,23,5
-76,55,-2042,-27,21,7
-82,52,-2039,-26,24,1
-79,59,-2044,-26,20,5
-78,57,-2045,-24,24,6
-82,57,-2040,-27,21,6
-82,57,-2044,-29,24,6
-85,59,-2039,-26,23,7
-80,55,-2039,-26,26,4
-82,50,-2044,-27,24,3
-75,66,-2044,-28,27,8
-89,54,-2043,-23,26,3
-81,58,-2046,-25,22,0
-76,57,-2039,-26,29,4
-79,56,-2038,-30,21,7
-86,64,-2040,-25,24,7
-78,57,-2041,-24,22,5
-79,59,-2041,-27,21,9
-87,57,-2037,-28,23,5
-84,52,-2059,-27,22,4
-85,57,-2043,-24,22,6
-81,55,-2053,-26,21,9
-79,55,-2049,-28,26,3
-76,54,-2042,-24,22,4
-76,53,-2043,-25,24,7
-79,57,-2042,-24,27,8
-85,61,-2043,-29,25,7
-88,53,-2043,-26,25,9
-68,50,-2045,-25,21,7
-76,56,-2055,-24,24,4
-74,60,-2040,-27,26,4
-80,55,-2053,-27,25,2
-87,58,-2040,-23,24,6
-77,60,-2057,-24,22,4
-85,60,-2030,-25,25,7
-75,52,-2039,-26,21,6
-80,54,-2050,-26,20,7
-81,64,-2051,-27,27,2
-85,58,-2039,-27,26,4
-81,58,-2042,-23,23,2
-83,53,-2043,-27,20,9
-78,53,-2044,-32,24,6
-79,58,-2033,-25,20,6
-77,63,-2042,-28,24,3
-87,63,-2034,-27,23,3
-80,56,-2039,-29,24,10
-79,61,-2053,-26,26,2
-78,48,-2048,-27,22,3
-73,58,-2047,-28,24,4
-77,53,-2040,-27,24,10
-80,60,-2047,-26,21,4
-85,59,-2042,-22,20,8
-89,61,-2032,-31,24,5
-85,49,-2039,-26,21,7
-86,49,-2053,-27,27,8
-80,54,-2036,-25,23,7
-79,57,-2036,-27,24,3
-83,56,-2040,-24,23,7
-84,55,-2050,-26,21,5
-92,55,-2043,-26,24,5
-81,56,-2045,-29,26,9
-83,56,-2054,-25,20,6
-85,51,-2038,-24,28,5
-79,53,-2048,-31,22,5
-78,53,-2038,-26,22,5
-84,49,-2046,-25,20,5
-81,55,-2039,-29,25,5
-77,51,-2038,-24,26,5
-83,62,-2044,-29,26,10
-80,51,-2031,-26,22,-3
-88,60,-2057,-25,19,3
-82,53,-2054,-30,23,9
-81,54,-2044,-22,21,6
-79,53,-2039,-25,22,0
-77,62,-2039,-30,23,6
-84,52,-2031,-25,26,4
-85,59,-2049,-29,23,6
-74,62,-2044,-25,17,6
-80,54,-2039,-28,27,9
-89,59,-2043,-27,26,8
-85,58,-2041,-29,21,4
-81,51,-2041,-26,25,4
-88,59,-2042,-27,23,3
-83,58,-2045,-28,24,5
-83,57,-2033,-29,24,8
-82,60,-2043,-29,23,3
-81,51,-2047,-24,22,9
-78,62,-2035,-21,20,6
-73,55,-2045,-26,26,5
-82,55,-2039,-28,22,3
-86,59,-2053,-26,24,13
-84,61,-2039,-23,25,5
-80,58,-2028,-25,26,6
-81,59,-2056,-25,22,5
-78,50,-2053,-30,24,8
-75,44,-2039,-27,23,6
-81,56,-2031,-24,23,6
-84,56,-2032,-30,20,5
-79,59,-2047,-25,24,1
-76,67,-2040,-26,22,7
-88,57,-2042,-27,22,8
-81,56,-2036,-26,22,6
-84,50,-2045,-24,22,6
-85,62,-2041,-23,24,7
-83,56,-2047,-25,27,4
-81,54,-2051,-24,19,5
-74,59,-2052,-25,23,7
-79,55,-2050,-24,19,6
-85,57,-2042,-26,26,5
-88,51,-2044,-22,24,6
-86,48,-2037,-25,19,5
-84,57,-2043,-27,21,4
-81,52,-2034,-23,24,5
-74,51,-2039,-29,24,7
-79,57,-2043,-22,22,5
-75,53,-2039,-26,27,10
-81,50,-2042,-26,27,7
-78,55,-2037,-22,24,4
-78,60,-2048,-22,23,9
-77,55,-2041,-24,20,2
-82,50,-2046,-29,23,3
-75,56,-2026,-23,24,6
-84,57,-2050,-25,22,4
-81,62,-2040,-26,22,6
-78,53,-2036,-24,26,7
-73,58,-2040,-28,24,9
-75,54,-2043,-26,21,4
-81,49,-2042,-24,23,4
-80,56,-2040,-24,23,2
-85,56,-2042,-27,22,6
-80,56,-2043,-27,22,7
-82,60,-2032,-28,23,7
-84,53,-2049,-26,25,8
-86,65,-2025,-27,26,1
-86,55,-2049,-26,21,4
-77,48,-2042,-23,25,8
-75,56,-2043,-24,24,8
-80,55,-2042,-26,27,6
-87,63,-2037,-26,22,6
-80,58,-2053,-24,22,5
-77,52,-2038,-27,18,5
-82,56,-2034,-27,22,10
-81,54,-2041,-30,24,5
-77,64,-2049,-25,19,7
-87,59,-2040,-26,26,9
-80,60,-2047,-25,21,5
-83,56,-2045,-24,24,6
-83,54,-2034,-28,24,5
-79,50,-2055,-26,22,4
-92,54,-2049,-26,25,6
-80,60,-2033,-25,25,-1
-86,60,-2038,-26,25,8
-87,61,-2040,-27,26,8
-85,54,-2039,-29,20,5
-80,57,-2049,-24,21,5
-81,56,-2049,-27,20,6
-80,56,-2047,-27,24,6
-88,57,-2038,-23,23,9
-80,58,-2040,-28,18,4
-81,59,-2050,-22,22,5
-79,62,-2041,-24,26,5
-87,52,-2042,-30,22,3
-82,60,-2046,-24,24,8
-84,54,-2039,-30,22,3
-91,54,-2028,-28,23,3
-80,54,-2040,-23,27,3
-82,60,-2048,-29,23,-3
-78,49,-2042,-23,25,5
-80,59,-2039,-25,21,7
-80,65,-2047,-25,22,7
-88,59,-2041,-26,26,5
-75,56,-2045,-27,20,5
-85,57,-2039,-30,21,8
-82,63,-2054,-24,24,6
-81,59,-2050,-25,25,5
-87,66,-2048,-30,22,3
-87,48,-2041,-26,25,7
-79,55,-2036,-25,23,3
-86,56,-2039,-26,22,8
-78,55,-2027,-29,20,7
-84,54,-2038,-27,25,7
-89,53,-2041,-25,24,7
-81,49,-2042,-30,18,7
-81,52,-2034,-26,24,3
-87,54,-2051,-27,20,6
-83,53,-2045,-24,24,7
-71,57,-2040,-23,22,2
-83,58,-2044,-26,23,2
-82,53,-2034,-25,22,3
-80,54,-2026,-28,27,7
-86,57,-2050,-24,22,9
-83,52,-2044,-27,20,7
-81,52,-2044,-26,26,4
-83,48,-2051,-27,20,5
-83,66,-2041,-23,23,3
-84,62,-2050,-29,22,3
-85,58,-2036,-23,23,2
-76,64,-2046,-27,25,5
-86,51,-2043,-29,22,8
-75,53,-2047,-27,22,7
-84,54,-2036,-27,27,6
-82,59,-2038,-25,23,7
-88,56,-2041,-24,23,5
-80,53,-2046,-31,23,12
-85,46,-2052,-27,28,7
-80,60,-2051,-26,24,3
-81,60,-2035,-26,18,3
-82,56,-2043,-29,21,5
-82,58,-2033,-23,20,9
-88,45,-2040,-27,23,7
-83,58,-2043,-22,25,8
-78,62,-2053,-27,24,7
-85,56,-2037,-27,27,2
-72,53,-2037,-27,21,7
-89,62,-2036,-28,24,2
-85,53,-2044,-25,25,5
-86,64,-2037,-29,22,7
-76,65,-2046,-24,25,9
-76,54,-2040,-29,25,3
-72,48,-2044,-27,22,2
-88,50,-2043,-26,23,1
-81,54,-2056,-23,20,5
-82,54,-2042,-24,20,5
-74,51,-2032,-25,26,3
-82,51,-2050,-26,21,2
-80,48,-2048,-31,21,8
-82,62,-2050,-24,22,5
-80,49,-2030,-24,24,8
-79,48,-2035,-28,26,8
-85,57,-2044,-25,26,3
-76,57,-2046,-29,23,5
-82,53,-2033,-25,25,5
-86,55,-2049,-28,26,2
-77,55,-2039,-32,27,2
-87,49,-2032,-25,20,5
-77,53,-2040,-26,22,4
-84,56,-2045,-24,22,3
-81,55,-2046,-26,26,5
-84,53,-2042,-26,21,5
-79,59,-2038,-24,22,2
-85,53,-2030,-26,23,6
-78,56,-2039,-25,19,4
-79,52,-2042,-23,24,4
-86,50,-2047,-29,21,6
-79,55,-2046,-24,28,4
-82,54,-2050,-28,22,4
-77,54,-2050,-29,25,7
-83,56,-2043,-28,23,8
-80,53,-2033,-28,25,4
-87,56,-2042,-25,19,3
-81,55,-2040,-23,26,8
-82,62,-2036,-25,21,6
-86,60,-2040,-23,23,5
-76,52,-2041,-27,23,6
-81,66,-2035,-29,24,8
-83,63,-2045,-28,22,-1
-78,61,-2048,-26,23,4
-78,54,-2034,-26,26,4
-80,50,-2048,-24,21,8
-80,58,-2039,-24,21,6
-79,54,-2032,-24,26,8
-78,54,-2054,-23,23,10
-85,59,-2040,-24,24,2
-75,54,-2048,-32,24,6
-88,54,-2038,-27,26,8
-75,51,-2045,-26,24,6
-80,59,-2036,-27,26,8
-82,49,-2043,-27,25,4
-81,56,-2033,-29,21,7
-80,56,-2050,-27,23,3
-83,57,-2036,-29,26,5
-81,58,-2047,-25,22,8
-83,53,-2039,-26,21,2
-80,61,-2044,-25,23,9
-85,61,-2038,-27,23,0
-81,54,-2047,-28,20,6
-86,54,-2053,-26,24,6
-89,56,-2043,-30,21,8
-80,61,-2037,-26,20,2
-76,54,-2040,-25,24,6
-85,58,-2042,-26,20,7
-84,67,-2033,-27,26,4
-83,60,-2041,-26,22,7
-70,54,-2040,-28,22,7
-87,57,-2040,-23,21,2
-82,52,-2035,-25,23,7
-86,60,-2048,-26,22,8
-81,59,-2035,-27,21,5
-84,58,-2045,-24,22,8
-79,61,-2029,-29,24,2
-87,55,-2041,-28,24,8
-77,60,-2042,-23,24,3
-74,62,-2043,-27,26,7
-78,59,-2046,-26,26,7
-86,55,-2049,-30,25,4
-84,62,-2034,-26,25,3
-85,61,-2057,-25,24,3
-78,50,-2047,-25,22,7
-86,57,-2033,-28,22,5
-80,60,-2033,-27,27,3
-83,55,-2038,-25,23,7
-81,60,-2035,-27,24,7
-80,57,-2039,-24,25,3
-72,62,-2040,-24,23,5
-102,54,-2055,-24,23,4
-77,54,-2041,-29,23,5
-77,61,-2028,-24,23,5
-81,64,-2046,-27,25,7
-83,65,-2045,-27,22,9
-78,51,-2037,-27,24,0
-79,58,-2040,-26,27,4
-85,60,-2058,-25,22,8
-85,51,-2034,-29,19,6
-77,71,-2047,-29,26,10
-80,61,-2044,-23,21,9
-78,55,-2049,-27,25,7
-80,53,-2040,-29,23,5
-82,57,-2036,-28,21,3
-88,55,-2049,-27,24,3
-83,53,-2026,-27,22,3
-83,62,-2043,-23,23,4
-83,56,-2033,-30,24,7
-84,61,-2041,-28,24,6
-80,52,-2046,-25,22,4
-84,55,-2037,-28,25,7
-84,58,-2046,-24,21,5
-76,63,-2030,-25,22,5
-93,64,-2032,-27,25,7
-77,60,-2039,-24,23,4
-80,58,-2056,-29,22,2
-83,54,-2044,-28,27,8
-83,56,-2049,-25,22,3
-76,56,-2043,-32,23,5
-86,66,-2040,-25,31,4
-77,56,-2048,-26,18,4
-85,49,-2041,-27,27,1
-78,59,-2038,-27,24,2
-81,63,-2034,-27,21,8
-73,56,-2034,-28,24,2
-76,61,-2040,-27,22,8
-85,57,-2032,-30,22,4
-86,54,-2032,-26,26,7
-84,62,-2049,-26,23,3
-84,58,-2037,-27,24,6
-77,54,-2042,-27,29,5
-88,53,-2060,-25,26,6
-83,46,-2034,-26,20,3
-86,57,-2033,-26,18,3
-79,57,-2041,-24,22,6
-80,53,-2030,-29,21,4
-82,61,-2050,-23,25,4
-81,54,-2030,-28,23,5
-88,55,-2038,-25,20,3
-87,63,-2037,-27,24,6
-78,57,-2036,-27,24,5
-81,60,-2039,-28,22,9
-80,50,-2050,-28,22,9
-91,56,-2036,-29,22,4
-85,55,-2042,-27,23,7
-78,58,-2051,-28,20,5
-80,61,-2032,-29,22,9
-75,56,-2035,-24,24,6
-77,58,-2037,-26,22,3
-81,51,-2050,-27,21,4
-77,56,-2041,-29,25,2
-78,58,-2040,-25,18,9
-88,53,-2047,-24,26,6
-81,52,-2040,-22,24,7
-71,52,-2043,-26,23,6
-87,62,-2023,-27,26,2
-86,56,-2042,-26,23,6
-82,47,-2047,-24,21,3
-79,60,-2047,-25,23,8
-73,55,-2056,-26,21,7
-78,55,-2044,-27,23,5
-86,56,-2044,-24,23,4
-79,56,-2043,-26,25,4
-72,55,-2027,-22,22,6
-86,53,-2040,-27,24,3
-84,51,-2041,-23,25,6
-83,53,-2031,-22,26,5
-77,53,-2051,-26,21,4
-83,60,-2046,-28,18,5
-84,60,-2026,-25,21,3
-85,58,-2041,-28,22,3
-76,59,-2039,-23,22,9
-77,58,-2039,-27,25,5
-77,68,-2031,-28,27,5
-78,48,-2038,-27,25,7
-83,56,-2029,-27,21,5
-91,50,-2047,-27,21,4
-75,51,-2040,-27,25,3
-82,59,-2050,-27,27,6
-85,50,-2041,-27,26,5
-79,57,-2052,-27,26,2
-81,59,-2043,-28,23,9
-84,50,-2046,-28,25,7
-82,64,-2038,-27,24,2
-80,60,-2061,-25,23,6
-74,60,-2045,-24,26,5
-78,54,-2038,-24,26,4
-80,54,-2040,-27,19,9
-82,49,-2032,-27,21,8
-87,57,-2030,-29,22,4
-79,59,-2039,-28,24,1
-83,58,-2032,-25,24,5
-82,52,-2037,-27,28,6
-80,53,-2042,-25,24,9
-83,65,-2049,-29,23,8
-90,54,-2039,-26,25,2
-88,61,-2034,-27,23,5
-82,59,-2044,-28,25,8
-86,60,-2042,-27,24,9
-80,56,-2037,-24,25,3
-82,54,-2037,-25,24,5
-82,60,-2038,-21,25,5
-83,56,-2045,-27,24,5
-87,62,-2031,-26,26,4
-84,60,-2038,-29,25,5
-88,61,-2038,-23,25,6
-87,58,-2044,-33,21,3
-76,50,-2050,-24,22,-1
-87,64,-2037,-24,24,5
-75,62,-2033,-27,20,7
-81,52,-2043,-27,25,3
-88,57,-2041,-28,23,5
-82,55,-2039,-29,26,6
-83,54,-2026,-27,24,6
-87,62,-2047,-23,22,3
-79,62,-2042,-27,24,8
-76,53,-2053,-24,25,6
-82,52,-2035,-25,25,4
-71,62,-2041,-22,20,1
-88,57,-2054,-28,25,5
-72,63,-2047,-24,22,6
-75,61,-2026,-25,24,5
-77,65,-2038,-25,24,6
-83,58,-2042,-26,24,2
-78,56,-2038,-28,24,7
-86,61,-2036,-28,22,5
-78,57,-2041,-22,26,10
-85,57,-2033,-28,26,4
-84,48,-2037,-25,22,2
-84,56,-2036,-21,25,5
-74,50,-2044,-27,24,8
-82,55,-2039,-29,25,3
-83,52,-2033,-27,19,7
-81,57,-2035,-28,24,9
-74,56,-2039,-24,21,5
-86,59,-2038,-29,22,7
-80,56,-2047,-25,26,7
-87,54,-2040,-27,24,4
-77,53,-2037,-23,23,2
-71,57,-2046,-26,21,4
-77,55,-2052,-25,25,7
-74,54,-2043,-28,25,7
-88,54,-2042,-27,21,6
-80,60,-2039,-26,24,7
-87,60,-2036,-29,26,5
-83,58,-2039,-28,21,7
-86,63,-2046,-25,25,10
-84,60,-2028,-22,24,4
-83,57,-2034,-29,23,4
-81,61,-2042,-28,24,7
-78,64,-2047,-24,24,9
-85,51,-2041,-24,23,6
-81,53,-2058,-26,26,6
-89,53,-2044,-22,26,6
-77,65,-2041,-23,24,7
-82,62,-2035,-26,20,6
-76,59,-2044,-28,24,8
-85,51,-2028,-28,24,5
-83,50,-2045,-28,21,5
-78,53,-2045,-28,23,6
-83,58,-2037,-28,23,1
-77,56,-2043,-24,21,4
-78,58,-2036,-29,24,9
-85,60,-2038,-26,24,8
-82,53,-2047,-23,26,5
-87,54,-2037,-26,26,8
-81,60,-2050,-27,23,6
-80,56,-2040,-27,24,8
-72,55,-2041,-28,21,5
-72,55,-2034,-26,24,4
-86,57,-2037,-23,23,5
-82,52,-2052,-27,21,1
-82,54,-2060,-24,22,6
-84,54,-2027,-24,24,8
-82,61,-2038,-26,27,6
-84,60,-2057,-30,24,7
-77,59,-2039,-26,26,10
-85,62,-2040,-25,23,6
-79,54,-2038,-29,24,4
-79,51,-2038,-24,27,5
-84,60,-2037,-24,22,6
-77,66,-2044,-25,23,6
-88,64,-2040,-24,27,5
-82,60,-2043,-26,20,6
-80,64,-2037,-26,24,4
-79,62,-2031,-29,23,7
-78,53,-2046,-25,25,3
-83,56,-2027,-23,22,3
-82,54,-2052,-23,22,8
-81,50,-2042,-25,26,4
-85,60,-2038,-24,24,7
-84,57,-2044,-23,22,7
-78,59,-2048,-29,22,8
-79,60,-2055,-26,20,6
-86,67,-2037,-21,24,5
-85,58,-2047,-29,27,8
-75,60,-2048,-30,21,2
-78,56,-2033,-27,23,6
-72,57,-2034,-28,23,3
-85,61,-2044,-25,23,4
-73,55,-2048,-28,22,4
-84,52,-2039,-24,24,7
-82,59,-2048,-26,23,5
-78,59,-2026,-26,21,3
-78,59,-2046,-29,20,6
-76,61,-2045,-26,18,6
-76,63,-2038,-26,27,5
-80,50,-2032,-24,25,5
-85,58,-2036,-24,27,6
-85,49,-2055,-27,24,4
-78,55,-2048,-27,23,3
-80,54,-2042,-24,22,5
-79,53,-2033,-26,24,7
-79,58,-2044,-27,28,6
-86,53,-2033,-25,23,2
-82,55,-2046,-29,24,5
-81,58,-2044,-32,24,4
-77,58,-2036,-26,19,4
-83,57,-2043,-25,23,2
-85,48,-2042,-24,25,6
-78,48,-2035,-27,25,6
-83,52,-2043,-24,24,6
-78,62,-2038,-24,23,4
-80,58,-2033,-24,25,6
-77,58,-2042,-26,24,4
-75,57,-2034,-27,25,3
-88,60,-2045,-23,23,9
-88,61,-2037,-26,22,5
-86,61,-2037,-29,23,6
-77,52,-2040,-25,24,5
-81,54,-2038,-26,23,6
-83,56,-2046,-27,26,4
-83,53,-2042,-29,21,6
-77,58,-2043,-27,26,9
-79,62,-2050,-22,24,8
-85,55,-2040,-29,22,2
-86,48,-2027,-28,22,6
-86,54,-2040,-23,23,4
-75,53,-2032,-24,27,10
-84,56,-2048,-27,22,3
-85,58,-2032,-24,25,4
-82,56,-2042,-29,23,7
-88,44,-2045,-24,17,6
-90,54,-2034,-27,24,5
-80,55,-2038,-25,25,8
-87,50,-2041,-24,20,3
-77,57,-2034,-28,23,3
-83,58,-2049,-29,22,2
-79,61,-2029,-25,23,5
-77,56,-2052,-27,24,6
-83,55,-2045,-28,23,7
-85,56,-2031,-26,23,8
-82,59,-2047,-24,23,4
-79,69,-2044,-25,23,6
-77,45,-2044,-27,24,5
-86,65,-2053,-29,24,5
-93,56,-2038,-30,24,6
-80,54,-2039,-27,22,4
-78,56,-2045,-24,24,7
-82,52,-2037,-27,23,7
-85,59,-2046,-25,23,8
-84,51,-2056,-29,22,7
-85,57,-2045,-25,25,4
-85,57,-2040,-24,28,3
-76,55,-2038,-25,26,4
-87,53,-2048,-26,22,7
-84,57,-2050,-24,23,6
-84,52,-2043,-23,25,3
-81,58,-2049,-26,20,6
-80,61,-2042,-31,23,2
-81,48,-2040,-23,22,6
-73,56,-2041,-27,25,7
-80,58,-2050,-25,24,5
-79,55,-2040,-28,20,7
-83,55,-2050,-28,23,6
-76,55,-2043,-24,21,6
-80,48,-2047,-27,25,5
-75,59,-2036,-27,21,4
-89,52,-2049,-25,23,4
-84,58,-2037,-25,25,6
-82,60,-2036,-24,19,9
-79,67,-2043,-25,23,7
-89,58,-2038,-26,23,3
-83,56,-2047,-26,26,1
-78,58,-2040,-24,25,8
-85,50,-2041,-28,27,4
-78,63,-2040,-29,24,7
-86,59,-2047,-24,20,1
-86,64,-2049,-27,25,5
-86,57,-2047,-24,22,6
-78,53,-2047,-26,24,5
-86,51,-2055,-27,24,8
-78,65,-2045,-27,21,4
-80,51,-2048,-28,23,2
-81,57,-2032,-27,23,5
-80,64,-2036,-27,25,7
-86,59,-2049,-27,25,2
-86,51,-2052,-27,25,7
-81,47,-2038,-27,26,4
-78,55,-2051,-28,24,7
-89,70,-2038,-24,22,4
-84,58,-2043,-27,30,5
-81,55,-2041,-27,20,7
-86,57,-2034,-26,22,1
-84,63,-2034,-24,22,2
-84,61,-2040,-24,20,1
-83,52,-2039,-25,24,6
-79,55,-2038,-29,22,4
-87,51,-2044,-25,23,5
-80,57,-2032,-26,24,3
-88,56,-2047,-24,21,4
-86,61,-2031,-25,19,5
-86,58,-2035,-27,25,6
-84,56,-2041,-25,23,4
-77,60,-2037,-28,23,8
-82,57,-2045,-24,25,2
-77,54,-2042,-25,25,9
-84,60,-2036,-27,21,5
-91,59,-2060,-29,26,6
-85,61,-2050,-24,22,5
-79,61,-2054,-23,24,4
-85,59,-2035,-26,22,9
-70,59,-2046,-25,25,7
-83,61,-2026,-25,20,3
-74,58,-2029,-25,25,7
-78,61,-2035,-24,24,5
-80,58,-2039,-26,25,10
-87,63,-2044,-29,23,5
-84,52,-2034,-25,21,6
-91,54,-2039,-25,22,5
-76,50,-2050,-23,25,7
-78,53,-2039,-25,27,6
-76,62,-2034,-22,22,7
-84,60,-2048,-24,25,2
-90,57,-2041,-28,25,5
-84,58,-2048,-25,20,6
-79,54,-2038,-28,23,1
-82,53,-2055,-28,24,6
-78,57,-2041,-24,26,8
-81,58,-2048,-25,26,2
-89,54,-2041,-29,21,5
-88,54,-2045,-24,22,6
-81,59,-2050,-30,23,6
-85,60,-2055,-27,22,0
-80,54,-2036,-24,24,2
-84,52,-2044,-27,20,9
-86,57,-2047,-27,23,7
-83,52,-2044,-30,25,1
-81,55,-2042,-24,23,9
-87,55,-2043,-21,24,4
-86,55,-2045,-27,21,3
-90,63,-2037,-24,21,10
-84,56,-2041,-25,22,4
-81,53,-2039,-24,25,6
-86,52,-2051,-29,18,5
-81,60,-2046,-26,30,6
-77,57,-2060,-25,27,5
-81,50,-2041,-25,23,4
-80,66,-2031,-27,24,7
-85,52,-2043,-27,20,4
-72,49,-2045,-25,23,7
-81,53,-2036,-23,23,3
-81,60,-2046,-30,24,7
-78,60,-2044,-27,21,7
-83,67,-2033,-26,23,7
-81,53,-2047,-24,22,5
-81,69,-2044,-27,22,6
-78,57,-2041,-27,25,7
-75,54,-2044,-28,23,6
-83,53,-2048,-24,23,6
-82,58,-2041,-28,19,7
-86,60,-2047,-27,22,2
-82,58,-2051,-23,22,4
-87,64,-2041,-23,22,7
-89,52,-2038,-24,20,5
-77,57,-2041,-26,20,7
-80,57,-2039,-28,21,6
-78,60,-2024,-26,23,7
-78,57,-2036,-23,24,6
-81,52,-2050,-28,24,6
-82,67,-2048,-24,25,7
-85,61,-2043,-24,25,1
-85,55,-2048,-26,21,4
-87,54,-2032,-27,22,4
-81,58,-2049,-28,23,2
-81,52,-2054,-27,25,0
-83,55,-2039,-26,23,10
-82,53,-2036,-27,24,2
-80,59,-2049,-26,25,3
-81,57,-2036,-27,23,10
-81,63,-2051,-26,21,3
-80,65,-2036,-27,23,9
-79,62,-2042,-27,23,3
-84,51,-2050,-26,27,6
-84,54,-2039,-26,26,9
-78,69,-2031,-26,25,4
-87,48,-2051,-25,25,2
-87,56,-2042,-28,22,4
-79,58,-2053,-28,22,6
-74,60,-2042,-25,26,7
-74,63,-2040,-26,23,7
-76,56,-2045,-29,26,7
-81,60,-2037,-25,25,7
-84,69,-2041,-28,26,8
-79,58,-2050,-26,24,5
-78,57,-2050,-26,23,5
-85,56,-2049,-24,25,8
-73,49,-2043,-26,24,5
-79,65,-2035,-28,21,5
-82,56,-2042,-26,26,5
-80,58,-2044,-29,21,2
-81,60,-2055,-26,22,6
-78,59,-2051,-27,26,6
-81,50,-2047,-26,22,5
-80,54,-2045,-22,25,5
-82,57,-2042,-23,20,6
-81,53,-2048,-31,20,3
-80,59,-2043,-25,23,3
-79,57,-2046,-26,23,1
-87,55,-2037,-25,23,5
-80,53,-2048,-27,24,3
-77,58,-2044,-27,23,7
-74,62,-2037,-30,23,7
-82,56,-2040,-24,21,6
-80,64,-2046,-28,24,3
-77,59,-2041,-28,27,3
-81,48,-2036,-27,23,9
-86,54,-2040,-30,21,2
-82,56,-2035,-29,21,4
-78,55,-2029,-27,21,7
-86,52,-2042,-28,23,6
-83,63,-2041,-28,20,4
-79,51,-2037,-26,19,5
-83,57,-2037,-24,26,7
-82,61,-2040,-25,24,6
-77,62,-2029,-25,25,1
-83,55,-2038,-24,20,2
-91,65,-2051,-22,22,1
-82,52,-2038,-25,28,3
-79,52,-2041,-26,23,4
-82,61,-2049,-24,20,6
-78,63,-2036,-27,24,4
-79,65,-2043,-27,26,6
-79,45,-2039,-27,22,3
-81,68,-2036,-26,18,2
-78,57,-2041,-24,21,6
-88,59,-2047,-27,25,8
-82,63,-2031,-28,22,4
-79,57,-2037,-24,24,7
-81,54,-2044,-29,29,7
-87,68,-2036,-25,24,7
-85,51,-2030,-24,23,9
-85,66,-2043,-25,26,3
-74,58,-2040,-29,21,10
-74,51,-2036,-28,22,0
-80,59,-2050,-23,25,6
-78,54,-2040,-29,25,7
-81,54,-2042,-25,21,3
-83,52,-2039,-26,23,4
-83,69,-2040,-28,25,4
-83,52,-2045,-24,23,6
-85,56,-2044,-25,26,7
-80,63,-2042,-27,21,8
-81,60,-2051,-27,22,5
-80,53,-2033,-22,25,7
-82,56,-2040,-26,23,6
-81,53,-2060,-32,23,4
-82,46,-2036,-29,24,5
-81,60,-2024,-23,27,4
-79,59,-2037,-25,28,3
-77,52,-2042,-27,27,5
-78,53,-2045,-26,24,9
-82,53,-2052,-27,22,6
-81,53,-2041,-27,23,5
-83,53,-2037,-28,24,4
-84,57,-2031,-24,26,5
-85,60,-2037,-25,19,4
-81,60,-2033,-22,25,2
-79,62,-2048,-26,24,5
-83,57,-2049,-24,20,3
-89,60,-2034,-26,28,6
-81,60,-2039,-24,20,7
-82,54,-2035,-24,22,5
-84,58,-2042,-29,21,7
-78,51,-2045,-26,22,6
-81,53,-2045,-26,20,6
-88,57,-2043,-29,22,5
-80,54,-2050,-27,27,7
-82,55,-2046,-27,20,2
-86,68,-2041,-27,22,2
-80,59,-2046,-24,25,8
-85,59,-2049,-23,22,7
-82,55,-2052,-24,23,5
-82,61,-2048,-26,22,6
-80,59,-2044,-24,22,7
-81,65,-2048,-28,20,6
-91,51,-2037,-24,28,8
-87,59,-2048,-29,24,6
-76,64,-2044,-26,22,3
-80,53,-2050,-25,22,6
-79,53,-2023,-27,25,9
-82,51,-2046,-28,20,3
-75,59,-2037,-29,25,6
-78,55,-2042,-23,25,6
-85,64,-2045,-25,25,6
-83,59,-2051,-28,27,6
-81,60,-2040,-26,26,5
-81,62,-2036,-27,23,5
-83,58,-2045,-26,26,7
-82,62,-2032,-24,26,4
-83,55,-2045,-29,26,8
-80,52,-2040,-26,25,8
-75,53,-2049,-24,24,9
-81,58,-2038,-25,24,5
-77,52,-2042,-24,26,5
-87,57,-2041,-25,26,4
-81,55,-2036,-25,24,2
-79,60,-2037,-28,22,6
-85,57,-2046,-27,21,5
-81,58,-2040,-25,24,6
-84,55,-2046,-24,25,7
-77,60,-2044,-29,26,8
-76,57,-2044,-26,20,11
-91,49,-2046,-24,24,3
-74,62,-2040,-27,26,9
-83,57,-2043,-25,25,5
-81,51,-2041,-24,22,6
-84,57,-2039,-24,26,3
-91,53,-2049,-25,21,6
-76,50,-2039,-26,22,2
-84,56,-2038,-27,25,2
-79,64,-2051,-28,24,6
-82,58,-2054,-25,23,6
-89,54,-2041,-24,23,5
-81,51,-2046,-26,22,6
-83,50,-2034,-28,26,10
-83,62,-2048,-25,22,1
-78,61,-2041,-28,25,5
-83,52,-2034,-29,23,5
-83,56,-2037,-26,25,10
-80,66,-2037,-25,25,4
-85,56,-2040,-26,26,2
-81,50,-2041,-28,24,7
-82,55,-2052,-22,23,3
-82,61,-2038,-21,24,5
-84,59,-2037,-26,21,6
-78,51,-2053,-24,23,7
-80,58,-2027,-21,22,5
-80,54,-2044,-28,22,4
-81,50,-2045,-29,21,3
-78,54,-2034,-29,26,4
-84,60,-2056,-28,23,4
-78,55,-2036,-27,26,10
-83,64,-2045,-25,25,10
-82,56,-2036,-23,24,2
-84,54,-2049,-27,22,7
-81,56,-2034,-29,20,3
-80,57,-2047,-27,25,4
-75,60,-2040,-28,27,6
-86,52,-2049,-23,22,5
-80,57,-2037,-25,23,1
-84,56,-2045,-26,20,7
-77,60,-2042,-26,21,-1
-71,57,-2029,-29,24,4
-80,50,-2047,-28,19,2
-82,61,-2039,-29,23,6
-84,60,-2040,-25,25,3
-79,64,-2033,-23,21,6
-76,62,-2043,-26,21,9
-85,63,-2050,-25,25,6
-74,61,-2030,-28,25,3
-86,55,-2056,-24,24,4
-84,60,-2049,-25,22,5
-79,62,-2033,-25,21,2
-81,55,-2040,-27,25,6
-75,56,-2034,-26,24,5
-88,55,-2033,-26,21,4
-83,48,-2037,-22,24,2
-78,61,-2041,-24,22,7
-81,58,-2043,-26,23,7
-82,55,-2030,-25,24,6
-84,58,-2039,-25,23,8
-83,59,-2038,-25,23,2
-83,60,-2035,-29,22,4
-82,63,-2041,-26,26,8
-81,56,-2041,-25,23,7
-79,60,-2044,-26,26,6
-78,58,-2044,-26,22,7
-79,60,-2041,-26,25,6
-79,56,-2044,-27,23,4
-84,66,-2052,-25,21,5
-80,58,-2034,-23,24,2
-75,46,-2046,-26,25,4
-78,62,-2040,-24,23,6
-81,58,-2035,-24,26,3
-80,49,-2032,-30,24,5
-82,57,-2038,-27,22,5
-82,59,-2043,-25,26,0
-82,55,-2043,-26,23,9
-82,62,-2043,-26,26,7
-83,60,-2067,-24,26,3
-75,65,-2027,-28,21,4
-84,58,-2048,-27,22,3
-79,63,-2030,-23,24,4
-76,56,-2041,-27,27,3
-89,53,-2037,-27,20,3
-74,53,-2043,-28,21,6
-85,59,-2048,-25,27,2
-75,57,-2036,-28,20,0
-85,67,-2040,-27,27,8
-90,61,-2050,-27,25,3
-81,64,-2051,-26,24,7
-80,60,-2034,-24,25,3
-87,55,-2039,-26,22,4
-77,60,-2041,-25,21,5
-81,45,-2054,-27,21,4
-76,54,-2028,-28,22,6
-81,54,-2034,-29,23,5
-83,52,-2042,-27,22,1
-79,62,-2024,-25,26,4
-74,61,-2038,-28,28,5
-80,55,-2035,-25,23,5
-81,48,-2044,-23,21,6
-82,53,-2041,-28,24,7
-86,60,-2036,-23,22,4
-77,56,-2038,-27,23,5
-82,51,-2052,-28,26,9
-76,58,-2040,-29,23,5
-81,59,-2034,-25,24,5
-85,55,-2037,-27,23,7
-79,52,-2035,-27,22,3
-77,55,-2040,-31,22,5
-79,59,-2035,-23,24,8
-83,50,-2043,-27,24,9
-83,61,-2038,-27,20,4
-79,51,-2035,-26,22,4
-87,60,-2043,-25,21,7
-86,61,-2045,-30,21,5
-76,55,-2053,-25,25,5
-83,51,-2046,-28,23,6
-88,55,-2037,-28,22,6
-85,64,-2045,-26,25,5
-82,52,-2043,-26,23,4
-77,59,-2050,-26,23,5
-80,48,-2039,-29,24,6
-85,54,-2054,-24,21,4
-85,49,-2040,-25,24,8
-86,60,-2043,-24,24,5
-77,58,-2042,-26,24,9
-84,60,-2045,-25,24,3
-85,56,-2045,-25,24,3
-83,54,-2044,-28,23,9
-79,57,-2036,-22,22,4
-82,48,-2028,-23,20,5
-77,58,-2036,-26,22,2
-80,56,-2035,-28,23,5
-76,58,-2039,-23,22,4
-86,65,-2037,-27,23,5
-84,54,-2054,-27,26,7
-85,49,-2040,-26,22,10
-74,58,-2049,-22,25,7
-80,65,-2045,-29,24,6
-79,57,-2030,-22,20,4
-80,56,-2050,-26,24,6
-81,60,-2042,-28,24,8
-84,60,-2040,-30,24,7
-78,62,-2045,-26,23,5
-82,50,-2037,-30,22,7
-79,54,-2042,-27,19,4
-81,54,-2048,-24,21,5
-81,61,-2055,-30,26,6
-87,66,-2032,-25,26,3
-84,61,-2024,-28,24,4
-81,57,-2047,-25,24,4
-85,57,-2033,-26,21,5
-78,57,-2045,-27,25,3
-90,64,-2034,-25,21,5
-85,53,-2051,-28,23,5
-86,58,-2050,-23,22,5
-87,55,-2029,-27,23,4
-74,58,-2041,-22,24,4
-79,61,-2036,-30,18,3
-85,61,-2041,-26,24,5
-85,56,-2046,-27,20,1
-78,52,-2040,-25,32,2
-84,56,-2041,-24,23,4
-73,61,-2042,-26,21,6
-74,58,-2032,-22,24,6
-83,50,-2046,-29,25,5
-80,59,-2046,-28,23,1
-85,60,-2043,-29,23,4
-85,58,-2032,-23,20,5
-80,54,-2042,-21,24,3
-78,54,-2043,-29,22,2
-83,52,-2046,-26,26,6
-79,51,-2051,-27,23,6
-80,64,-2049,-29,24,3
-81,49,-2045,-27,19,7
-82,57,-2040,-25,19,7
-79,55,-2042,-26,23,2
-81,57,-2038,-26,20,2
-84,58,-2043,-24,24,4
-80,52,-2041,-24,21,7
-84,59,-2044,-27,28,5
-84,54,-2050,-29,24,5
-80,62,-2041,-24,22,2
-84,54,-2031,-25,21,6
-78,60,-2040,-27,22,5
-81,60,-2045,-28,23,6
-77,59,-2045,-24,24,3
-85,54,-2052,-27,19,7
-78,53,-2037,-26,26,2
-78,58,-2028,-23,24,6
-83,59,-2044,-28,25,6
-87,58,-2032,-27,20,9
-77,63,-2036,-28,25,6
-79,55,-2044,-26,22,7
-89,57,-2044,-21,22,6
-79,61,-2044,-26,22,8
-75,49,-2044,-24,26,4
-78,55,-2051,-31,26,7
-82,58,-2038,-27,23,6
-83,50,-2046,-25,25,7
-75,53,-2040,-29,21,6
-84,61,-2027,-30,25,6
-82,55,-2041,-31,22,7
-82,58,-2036,-28,27,2
-89,62,-2053,-25,21,3
-84,53,-2049,-23,23,10
-81,58,-2039,-26,24,5
-84,53,-2053,-28,28,4
-70,43,-2049,-23,19,3
-86,55,-2027,-27,23,3
-87,55,-2044,-24,23,6
-83,62,-2045,-24,22,7
-80,54,-2038,-25,18,1
-81,55,-2054,-23,22,8
-85,58,-2037,-28,24,8
-88,57,-2032,-23,23,6
-88,56,-2045,-27,20,6
-84,53,-2046,-28,25,1
-86,56,-2043,-30,26,7
-83,55,-2048,-23,21,5
-83,56,-2046,-28,21,3
-84,58,-2047,-26,20,3
-76,59,-2045,-30,20,4
-81,53,-2037,-28,20,9
-84,63,-2061,-22,24,2
-77,56,-2039,-25,23,5
-80,56,-2045,-29,25,4
-83,52,-2049,-27,21,5
-81,59,-2037,-24,28,2
-82,54,-2030,-26,23,3
-84,59,-2038,-24,23,5
-77,53,-2050,-23,23,4
-77,54,-2044,-25,21,4
-75,56,-2042,-27,21,8
-84,57,-2034,-26,26,11
-79,59,-2037,-27,25,5
-84,60,-2030,-26,26,8
-84,53,-2035,-27,25,2
-89,61,-2041,-24,22,2
-86,63,-2034,-26,23,9
-84,55,-2040,-23,23,10
-87,51,-2045,-27,20,7
-83,55,-2042,-30,24,8
-86,54,-2041,-23,19,4
-83,53,-2034,-27,23,7
-79,63,-2026,-28,21,2
-87,53,-2043,-29,24,7
-81,53,-2042,-26,24,8
-83,50,-2042,-26,23,8
-82,56,-2044,-28,23,8
-80,52,-2037,-21,22,8
-74,57,-2046,-24,25,2
-84,57,-2043,-27,19,5
-80,60,-2040,-26,23,3
-80,59,-2047,-24,23,4
-80,53,-2039,-28,22,1
-83,61,-2041,-26,23,8
-75,60,-2049,-24,25,12
-83,57,-2037,-26,22,4
-87,53,-2046,-31,24,3
-78,60,-2038,-28,22,5
-79,56,-2041,-26,24,3
-81,55,-2047,-26,21,7
-87,53,-2031,-27,21,6
-81,56,-2040,-25,22,8
-82,57,-2046,-27,27,5
-82,63,-2041,-26,22,9
-78,63,-2034,-27,21,4
-78,56,-2040,-26,24,2
-82,56,-2044,-23,25,8
-79,58,-2046,-22,21,5
-77,47,-2048,-25,25,5
-82,53,-2046,-25,22,5
-79,60,-2037,-27,22,4
-85,58,-2052,-27,19,7
-88,52,-2048,-28,22,9
-85,54,-2039,-31,23,5
-79,54,-2047,-25,20,2
-93,55,-2042,-29,22,4
-79,54,-2038,-26,28,8
-82,53,-2035,-27,25,5
-73,57,-2030,-23,22,4
-88,50,-2029,-31,26,1
-74,61,-2034,-27,24,7
-84,62,-2039,-29,23,0
-86,62,-2044,-25,24,4
-89,60,-2040,-24,25,2
-73,68,-2038,-26,24,7
-79,57,-2030,-28,24,7
-78,58,-2043,-28,24,7
-85,62,-2042,-28,21,5
-82,58,-2059,-29,18,5
-83,59,-2032,-24,23,7
-86,54,-2026,-29,23,6
-82,56,-2041,-23,22,4
-84,61,-2046,-30,26,7
-78,55,-2034,-29,21,9
-82,58,-2042,-25,24,8
-79,63,-2036,-22,20,3
-81,55,-2039,-24,27,6
-75,52,-2027,-26,27,3
-86,56,-2050,-29,19,8
-80,53,-2034,-27,24,5
-92,56,-2042,-28,22,9
-85,56,-2034,-27,23,5
-78,56,-2036,-26,20,9
-82,56,-2039,-25,21,5
-80,58,-2052,-27,22,6
-87,55,-2035,-26,24,7
-86,57,-2051,-27,23,7
-75,57,-2044,-27,25,3
-83,55,-2045,-28,23,4
-85,59,-2038,-25,27,5
-82,54,-2052,-25,24,9
-86,62,-2050,-26,20,6
-85,51,-2036,-26,23,3
-83,53,-2042,-24,23,3
-78,64,-2045,-26,21,4
-78,52,-2034,-29,23,4
-89,52,-2037,-25,25,2
-88,57,-2045,-26,20,0
-86,50,-2048,-30,24,9
-79,55,-2048,-25,23,3
-82,62,-2039,-28,20,3
-79,61,-2053,-27,23,13
-78,55,-2038,-26,22,5
-80,57,-2052,-24,20,3
-91,63,-2052,-24,26,5
-82,54,-2044,-27,22,6
-82,57,-2037,-28,23,5
-76,68,-2040,-27,22,9
-83,57,-2037,-26,24,4
-80,55,-2041,-26,25,2
-79,58,-2048,-25,23,6
-76,60,-2043,-25,25,3
-82,64,-2043,-27,23,5
-81,63,-2043,-24,21,3
-80,62,-2035,-28,22,2
-82,59,-2028,-25,18,7
-90,59,-2038,-28,23,7
-83,62,-2053,-28,24,2
-78,53,-2048,-26,26,5
-81,62,-2036,-27,21,0
-81,58,-2041,-26,25,5
-80,57,-2051,-21,25,2
-85,52,-2048,-27,21,4
-81,60,-2050,-30,25,4
-84,57,-2046,-30,25,3
-72,60,-2041,-24,23,7
-82,55,-2038,-28,23,5
-82,52,-2050,-27,21,2
-84,61,-2038,-24,22,5
-80,55,-2047,-26,18,5
-87,58,-2041,-26,20,4
-76,62,-2050,-26,19,7
-81,56,-2048,-23,23,4
-85,53,-2035,-26,23,2
-84,47,-2049,-26,18,9
-79,59,-2039,-24,24,9
-82,68,-2050,-25,26,5
-84,53,-2036,-27,25,5
-82,60,-2036,-25,25,4
-81,54,-2038,-25,21,2
-80,52,-2030,-24,21,3
-83,57,-2056,-27,23,6
-82,58,-2039,-26,22,7
-84,49,-2040,-27,20,7
-83,53,-2035,-28,23,5
-77,49,-2045,-24,19,8
-85,57,-2036,-25,20,6
-87,58,-2051,-27,23,5
-76,57,-2042,-29,25,4
-85,50,-2048,-24,25,1
-85,54,-2039,-25,21,5
-87,52,-2039,-23,20,10
-76,51,-2029,-25,24,3
-86,59,-2049,-26,24,3
-81,63,-2039,-25,22,9
-77,59,-2043,-25,19,6
-73,58,-2029,-27,20,5
-81,55,-2058,-29,22,2
-87,63,-2045,-27,25,6
-84,59,-2051,-27,22,1
-80,52,-2032,-27,23,1
-84,54,-2041,-23,22,6
-80,64,-2053,-30,24,5
-78,61,-2049,-25,25,5
-75,56,-2038,-28,25,7
-79,63,-2049,-29,21,7
-77,59,-2040,-27,26,9
-73,56,-2037,-27,25,2
-82,63,-2038,-26,22,8
-74,55,-2039,-28,24,0
-77,53,-2044,-26,24,3
-90,60,-2051,-25,21,7
-81,67,-2048,-26,27,4
-85,57,-2036,-25,24,6
-85,54,-2030,-32,20,7
-81,56,-2032,-22,24,5
-84,62,-2036,-24,23,3
-79,55,-2046,-27,27,7
-82,63,-2040,-24,21,7
-79,62,-2046,-28,23,7
-79,52,-2048,-26,28,6
-89,57,-2045,-28,23,3
-86,61,-2041,-26,27,9
-84,54,-2032,-23,24,5
-84,53,-2032,-32,20,5
-88,53,-2041,-24,22,2
-87,57,-2045,-24,20,8
-85,61,-2040,-25,22,1
-78,51,-2047,-25,26,11
-81,60,-2042,-28,25,8
-82,53,-2047,-28,23,5
-78,63,-2034,-27,24,6
-89,59,-2039,-22,22,7
-84,56,-2041,-25,24,4
-85,53,-2040,-25,21,6
-84,58,-2046,-27,23,5
-76,55,-2046,-27,20,7
-78,49,-2045,-27,20,7
-79,49,-2047,-27,22,3
-84,60,-2037,-27,21,8
-87,59,-2041,-25,23,5
-82,52,-2026,-23,26,6
-82,50,-2047,-28,23,5
-86,55,-2039,-29,21,7
-79,53,-2029,-28,22,7
-92,54,-2032,-25,26,5
-76,61,-2047,-28,21,5
-86,62,-2036,-24,23,5
-76,61,-2051,-28,24,3
-81,57,-2036,-25,23,6
-80,58,-2034,-27,27,5
-88,53,-2042,-25,25,6
-85,56,-2043,-24,22,6
-82,52,-2039,-27,22,11
-88,47,-2035,-28,20,-3
-78,57,-2048,-27,25,3
-83,57,-2040,-25,24,4
-87,57,-2039,-24,26,7
-78,60,-2042,-28,27,3
-79,62,-2042,-27,27,4
-75,50,-2035,-25,21,2
-79,56,-2033,-26,22,8
-91,58,-2043,-26,22,5
-80,48,-2040,-26,25,5
-86,57,-2035,-26,21,9
-81,53,-2039,-30,21,5
-84,58,-2046,-27,26,5
-80,50,-2040,-26,28,3
-80,48,-2033,-25,23,4
-77,56,-2036,-28,23,5
-85,58,-2049,-25,23,7
-79,49,-2046,-25,23,2
-77,56,-2044,-25,25,6
-77,57,-2039,-27,27,4
-81,52,-2046,-30,25,3
-79,55,-2051,-25,26,3
-80,65,-2049,-25,22,8
-88,64,-2052,-23,25,2
-74,57,-2040,-29,24,2
-86,54,-2037,-26,21,8
-86,57,-2034,-26,20,5
-82,58,-2048,-24,24,6
-88,65,-2045,-26,24,7
-87,55,-2044,-27,23,2
-83,55,-2047,-26,24,5
-78,56,-2040,-28,26,6
-85,59,-2052,-30,22,5
-88,59,-2042,-25,24,6
-84,57,-2033,-26,22,10
-75,57,-2042,-27,23,4
-81,59,-2033,-24,20,4
-83,51,-2032,-30,22,-1
-77,56,-2037,-29,25,3
-82,59,-2044,-28,24,3
-83,57,-2038,-30,23,5
-79,56,-2050,-27,22,10
-84,54,-2038,-23,25,6
-84,64,-2033,-27,26,0
-85,56,-2038,-26,22,0
-84,59,-2044,-26,24,5
-76,56,-2041,-26,21,2
-81,59,-2033,-25,21,6
-78,59,-2043,-22,24,7
-88,53,-2051,-27,24,9
-88,58,-2049,-23,24,2
-87,58,-2032,-28,23,7
-77,55,-2038,-26,25,2
-81,55,-2042,-26,24,9
-77,62,-2044,-25,22,6
-86,51,-2042,-24,20,10
-85,58,-2041,-27,19,6
-91,59,-2047,-24,24,3
-80,59,-2037,-30,22,6
-77,55,-2045,-26,24,4
-82,58,-2040,-30,22,7
-88,55,-2039,-24,24,9
-81,59,-2029,-26,21,6
-86,60,-2043,-25,26,5
-80,54,-2042,-26,24,6
-81,50,-2045,-23,22,4
-85,59,-2045,-26,25,4
-86,58,-2029,-25,27,8
-81,61,-2041,-27,22,5
-83,58,-2039,-23,24,3
-87,62,-2042,-22,28,5
-80,58,-2049,-23,19,3
-81,57,-2037,-27,23,6
-92,60,-2045,-25,20,4
-84,56,-2032,-26,24,7
-81,54,-2049,-23,22,1
-82,62,-2051,-24,22,5
-81,48,-2040,-27,23,9
-75,63,-2042,-27,21,0
-81,55,-2037,-26,25,3
-83,67,-2043,-24,22,3
-77,54,-2043,-29,26,2
-78,63,-2028,-25,21,9
-85,60,-2040,-28,21,5
-79,61,-2034,-27,21,-1
-83,56,-2040,-26,22,4
-80,59,-2030,-27,19,8
-84,59,-2036,-25,20,3
-87,61,-2040,-26,23,5
-75,59,-2041,-31,23,6
-83,60,-2035,-26,24,5
-87,52,-2033,-29,22,6
-88,66,-2039,-27,24,9
-86,58,-2045,-26,24,4
-86,63,-2044,-30,20,5
-91,54,-2036,-29,28,6
-83,56,-2041,-25,23,6
-83,55,-2050,-26,25,4
-79,60,-2042,-24,23,3
-74,62,-2038,-25,24,3
-79,53,-2046,-28,25,4
-85,55,-2048,-28,22,1
-79,58,-2045,-26,25,3
-79,54,-2035,-27,22,4
-83,54,-2039,-28,24,5
-83,58,-2036,-28,23,4
-82,55,-2039,-26,23,3
-85,65,-2043,-27,21,7
-83,62,-2045,-26,25,8
-83,55,-2040,-24,20,4
-80,55,-2040,-23,22,6
-75,55,-2051,-27,21,5
-86,57,-2040,-26,19,7
-80,57,-2042,-24,24,4
-82,46,-2030,-29,22,7
-76,49,-2056,-25,24,6
-83,58,-2042,-27,23,6
-85,65,-2043,-26,20,7
-80,47,-2048,-27,22,5
-84,56,-2044,-23,25,4
-81,61,-2045,-28,24,3
-76,47,-2044,-27,27,5
-86,52,-2033,-25,22,6
-79,58,-2032,-24,27,3
-87,54,-2047,-29,21,1
-84,60,-2037,-25,25,5
-81,52,-2036,-26,23,5
-78,61,-2048,-26,25,8
-84,57,-2045,-28,25,0
-82,60,-2034,-27,24,5
-88,64,-2026,-25,24,2
-75,61,-2036,-28,26,3
-79,47,-2047,-28,22,5
-73,48,-2039,-29,21,8
-79,61,-2041,-26,24,3
-85,50,-2038,-25,21,3
-78,58,-2048,-26,23,5
-83,53,-2046,-26,26,8
-86,57,-2035,-26,25,11
-79,46,-2050,-25,20,2
-85,59,-2040,-26,22,1
-81,56,-2040,-26,25,4
-77,56,-2032,-27,19,7
-86,63,-2046,-23,24,9
-77,55,-2047,-26,20,3
-85,50,-2038,-27,23,6
-79,58,-2050,-31,26,6
-90,47,-2043,-26,25,5
-78,64,-2039,-27,22,5
-79,52,-2046,-28,23,5
-86,53,-2029,-23,20,3
-81,56,-2040,-29,21,6
-78,54,-2050,-26,23,5
-78,58,-2043,-22,27,5
-81,56,-2049,-25,29,6
-77,56,-2033,-24,23,6
-77,56,-2048,-26,23,6
-83,57,-2040,-28,26,4
-83,56,-2032,-26,23,7
-79,54,-2044,-24,22,5
-85,51,-2043,-23,21,8
-82,57,-2029,-26,20,4
-81,61,-2049,-25,26,7
-79,60,-2040,-25,20,7
-80,52,-2037,-26,25,6
-85,56,-2032,-24,24,8
-81,60,-2052,-25,25,5
-87,60,-2038,-30,22,8
-85,60,-2044,-26,26,5
-79,61,-2048,-23,26,0
-92,65,-2031,-28,20,6
-84,52,-2035,-25,23,2
-78,60,-2047,-27,20,7
-78,60,-2046,-28,21,6
-76,52,-2041,-25,22,8
-77,51,-2041,-27,24,5
-88,58,-2038,-30,25,4
-81,51,-2051,-28,25,5
-81,54,-2042,-30,22,2
-78,59,-2034,-22,23,0
-81,64,-2048,-28,23,9
-82,55,-2037,-28,23,4
-87,51,-2022,-25,22,5
-83,59,-2043,-29,23,4
-82,59,-2035,-26,23,8
-86,53,-2039,-28,23,1
